trigger,count,euler_1,euler_2,euler_3,gx,gy,gz,ax,ay,az,year,month,day,hour,minute,second,millisecond,trigger,count,euler_1,euler_2,euler_3,gx,gy,gz,ax,ay,az,year,month,day,hour,minute,second,millisecond
0,0,100.5428772,-17.97727966,19.93458748,0.9675918221,0.04314654693,0.1467609704,1.19064486,3.313844919,0.3122856617,1905,6,14,11,54,16,161070,0,0,115.4200363,-35.04389954,70.97754669,0.8915272355,0.3256305456,0.1558636725,0,0,0,1905,6,24,10,41,40,245014
0,1,100.5210114,-17.98849487,19.94934082,0.9725577831,0.04183654487,0.1537357718,1.577418804,3.244343042,-8.008000374,1905,6,14,11,54,16,201072,0,1,115.4088974,-35.06452179,70.98025513,0.8941919208,0.3111014366,0.1607105583,2.118902445,0.2905176878,-1.028586984,1905,6,24,10,41,40,285026
0,2,100.5183716,-18.00963593,19.95597458,0.9689241648,0.04136018082,0.1497163922,0.6491612792,1.958560228,0.6217178106,1905,6,14,11,54,16,241072,0,2,115.3984299,-35.08662033,70.98194885,0.8951608539,0.3159841895,0.1577551365,1.770805836,0.2905176878,-0.4441040158,1905,6,24,10,41,40,366992
0,3,100.5144958,-18.02908897,19.96545601,0.9652904868,0.04529018328,0.1493617445,1.654773593,2.445072651,-0.06590917706,1905,6,14,11,54,16,282221,0,3,115.3863602,-35.10918045,70.98260498,0.8946763873,0.3153887093,0.1534993351,0.9199030399,-0.2307455987,-0.375341326,1905,6,24,10,41,40,409081
0,4,100.5110092,-18.04627228,19.97380638,0.9723155499,0.04648109525,0.1474702656,1.19064486,3.383346558,-0.2721972764,1905,6,14,11,54,16,322226,0,4,115.3733215,-35.12996292,70.98491669,0.891163826,0.328012377,0.15078035,1.306676984,-0.2307455987,-1.028586984,1905,6,24,10,41,40,449102
0,5,100.5100784,-18.06423759,19.98108864,0.9758281112,0.05434110388,0.1464063227,1.035935283,3.418097496,0.9311499,1905,6,14,11,54,16,362998,0,5,115.3616333,-35.15076065,70.98825836,0.9013381004,0.3168178201,0.1529082507,2.118902445,0.1862650365,-0.9254428744,1905,6,24,10,41,40,489105
0,6,100.509903,-18.08584213,19.98887062,0.9713465571,0.04636200517,0.1519625187,1.422709227,2.097563744,1.584395528,1905,6,14,11,54,16,407064,0,6,115.3520737,-35.17331314,70.98779297,0.8963720798,0.3125305474,0.1558636725,1.113290071,0.5337738991,-0.1346718818,1905,6,24,10,41,40,529280
0,7,100.5093002,-18.10540199,19.99825096,0.97158885,0.03743017465,0.1542086303,2.080224991,2.862083197,1.171819329,1905,6,14,11,54,16,487070,0,7,115.3434982,-35.19564438,70.98761749,0.8991578817,0.3233678341,0.1540904194,1.422709227,0.9507845044,0.03723486513,1905,6,24,10,41,40,571987
0,8,100.5066376,-18.12600708,20.00758934,0.9711043239,0.03778744861,0.1537357718,1.770805836,2.16706562,0.4841924012,1905,6,14,11,54,16,528985,0,8,115.3343506,-35.21855545,70.9888382,0.8979466558,0.3231296539,0.1562183201,1.886837959,0.6727774143,0.1747602522,1905,6,24,10,41,40,611987
0,9,100.5041275,-18.15019226,20.01597404,0.9786139131,0.04219381511,0.15078035,1.384031773,0.7770301104,1.103056669,1905,6,14,11,54,16,568992,0,9,115.3232956,-35.2433815,70.99094391,0.9036394358,0.3074096143,0.1576369256,1.848160625,-0.2307455987,0.552955091,1905,6,24,10,41,40,652238
0,10,100.5007706,-18.17374992,20.0258255,0.9725577831,0.03957381472,0.1456970125,1.848160625,0.9160336256,0.7248618007,1905,6,14,11,54,16,609088,0,10,115.3124237,-35.26919556,70.99143219,0.9025493264,0.3141978085,0.1597648263,1.229322195,-0.3349982798,0.9311499,1905,6,24,10,41,40,693994
0,11,100.4956055,-18.19523621,20.03806686,0.9680762887,0.03766835481,0.1465245336,2.660385847,1.472047806,-0.3065786064,1905,6,14,11,54,16,649099,0,11,115.3011932,-35.29454422,70.99666595,0.8973410726,0.3203905523,0.1532628983,2.931127548,-0.3349982798,0.7936245203,1905,6,24,10,41,40,734002
0,12,100.4921188,-18.21481705,20.04827118,0.9723155499,0.04088381678,0.1414412111,1.964192748,2.445072651,0.07161621004,1905,6,14,11,54,16,689106,0,12,115.2891922,-35.31835938,71.00154114,0.892375052,0.318127811,0.1551543772,2.699063301,-0.3349982798,0.2091416121,1905,6,24,10,41,40,774011
0,13,100.4874649,-18.23575401,20.05875206,0.9755858779,0.04314654693,0.1419140697,1.964192748,1.750054955,-0.2034345716,1905,6,14,11,54,16,729110,0,13,115.2767258,-35.34220505,71.00669861,0.9021859765,0.3138405383,0.1512532085,2.621708393,-0.5087527037,0.07161621004,1905,6,24,10,41,40,816269
0,14,100.4849548,-18.25915146,20.06780815,0.968318522,0.03981199488,0.1446330696,1.616096258,1.089788079,1.034294009,1905,6,14,11,54,16,769118,0,14,115.2645874,-35.36629105,71.01142883,0.8996424079,0.3046705127,0.1552725881,2.621708393,-0.4740018249,0.1403789073,1905,6,24,10,41,40,858999
0,15,100.481514,-18.28160095,20.07483292,0.9712254405,0.03921654075,0.1449877173,0.6878386736,1.333044291,0.518573761,1905,6,14,11,54,16,810024,0,15,115.2532501,-35.39094925,71.01157379,0.8978255391,0.3155077994,0.1565729678,0.9199030399,-0.3349982798,0.4498110414,1905,6,24,10,41,40,904007
0,16,100.4770813,-18.30166054,20.08180428,0.9700142145,0.04112199694,0.1446330696,0.4944516718,2.132314682,-0.1690532267,1905,6,14,11,54,16,850027,0,16,115.240036,-35.41455078,71.01390839,0.8989156485,0.3191996217,0.1516078562,1.306676984,-0.6825071573,0.002853517653,1905,6,24,10,41,40,944011
0,17,100.473938,-18.32489586,20.0874157,0.9711043239,0.04219381511,0.1455788016,0.1463550776,1.055037141,0.7248618007,1905,6,14,11,54,16,890029,0,17,115.2275543,-35.43843842,71.01660156,0.8975833058,0.3027650714,0.1570458412,1.770805836,-0.5782544613,0.002853517653,1905,6,24,10,41,40,984016
0,18,100.4736252,-18.35041046,20.09089661,0.9751013517,0.04088381678,0.1443966329,-0.3951284885,0.5337738991,1.962590337,1905,6,14,11,54,16,932019,0,18,115.2167969,-35.46259689,71.01515198,0.8977044225,0.3102678061,0.1562183201,0.4944516718,-0.02224028297,0.4154296815,1905,6,24,10,41,41,24028
0,19,100.4742355,-18.3803997,20.09067726,0.9602033496,0.05112564564,0.155390799,-1.826192141,-1.099517822,3.097174883,1905,6,14,11,54,16,972019,0,19,115.2052536,-35.4870491,71.01293945,0.8997635245,0.3062187135,0.1545632929,-0.008354506455,-0.300247401,0.4154296815,1905,6,24,10,41,41,40013
0,20,100.4720612,-18.40804482,20.09266281,0.9604455829,0.03874017671,0.1605923474,-1.168676376,-0.5435035825,1.653158188,1905,6,14,11,54,17,12068,0,20,115.1930542,-35.51170349,71.01229095,0.8893470168,0.3119350672,0.1607105583,0.6104838252,-0.5087527037,0.552955091,1905,6,24,10,41,41,120980
0,21,100.469101,-18.43042564,20.09140205,0.9638370275,0.02873652428,0.1556272358,-2.599740267,1.437296987,0.6217178106,1905,6,14,11,54,17,40008,0,21,115.168129,-35.55891418,71.01551056,0.8962509632,0.3082432449,0.1604741365,2.273612022,-0.4740018249,-0.3065786064,1905,6,24,10,41,41,163125
0,22,100.465004,-18.45950127,20.08860779,0.9752224684,0.0496965535,0.1639024168,-3.527997732,-1.377524853,1.206200719,1905,6,14,11,54,17,80022,0,22,115.1559296,-35.58638382,71.01039124,0.8986734152,0.302169621,0.1688675284,-1.129999042,-1.064766884,1.309344769,1905,6,24,10,41,41,205969
0,23,100.4631195,-18.49254799,20.08804893,0.9713465571,0.0496965535,0.1713500917,-2.290320873,-2.628556728,2.615836143,1905,6,14,11,54,17,120023,0,23,115.1479645,-35.61693192,71.00971222,0.8910427094,0.3224150836,0.1683946699,1.654773593,-0.02224028297,3.234700441,1905,6,24,10,41,41,245982
0,24,100.4620667,-18.52513695,20.09357071,0.96589607,0.05469837785,0.1845903844,0.3784194589,-2.350549698,2.822124243,1905,6,14,11,54,17,160030,0,24,115.1411285,-35.65051651,71.01303864,0.8853499889,0.3172941804,0.159055531,3.433933735,0.01251060329,4.575572968,1905,6,24,10,41,41,287972
0,25,100.4619827,-18.56032944,20.08189583,0.9612934589,0.04159836099,0.1718229502,-6.622189045,-3.219321966,3.544132471,1905,6,14,11,54,17,200032,0,25,115.1327591,-35.68627167,71.00444794,0.8908004761,0.3184850812,0.1537357718,-1.903546929,-0.8215106726,5.091293335,1905,6,24,10,41,41,329225
0,26,100.4642181,-18.59410667,20.05800247,0.9582654238,0.05886656418,0.1631931216,-11.53421879,-2.385300636,4.266140938,1905,6,14,11,54,17,244907,0,26,115.1218948,-35.71957397,70.99163818,0.8834120631,0.3287269175,0.1456970125,-4.30154562,-1.16901958,4.09423399,1905,6,24,10,41,41,369226
0,27,100.4641266,-18.62233925,20.05855751,0.9559640884,0.08113659173,0.1459334493,-1.903546929,-0.5782544613,2.684598684,1905,6,14,11,54,17,284952,0,27,115.1146469,-35.7521553,70.98699188,0.8813529611,0.321462363,0.1407319009,-0.3564510942,-0.09174205363,3.95670867,1905,6,24,10,41,41,412970
0,28,100.4651947,-18.65121078,20.05774117,0.9556007385,0.06101020426,0.1318656355,-2.17428875,-0.6477562785,3.062793732,1905,6,14,11,54,17,326929,0,28,115.1066742,-35.7826767,70.97808075,0.9010958672,0.2887123227,0.1239451021,-2.367675781,0.04726149142,2.994030952,1905,6,24,10,41,41,457955
0,29,100.4698715,-18.68281746,20.0436306,0.9738901258,0.06398747861,0.1196892858,-7.318382263,-1.238521338,4.816242218,1905,6,14,11,54,17,366929,0,29,115.0983047,-35.81424332,70.95210266,0.9025493264,0.25203228,0.1222900674,-9.213574409,-0.300247401,3.097174883,1905,6,24,10,41,41,502964
0,30,100.476944,-18.72151566,20.01844025,0.9704987407,0.07113294303,0.1068036407,-11.6889286,-3.705834389,6.844741821,1905,6,14,11,54,17,406962,0,30,115.0953751,-35.85132217,70.90113831,0.9205964804,0.2453631759,0.1284373403,-17.91598892,0.5337738991,5.572631836,1905,6,24,10,41,41,547951
0,31,100.4963684,-18.7706356,19.97649193,0.9955709577,0.08697205782,0.09119901061,-17.1424408,-6.173147202,12.86147785,1905,6,14,11,54,17,450928,0,31,115.097374,-35.88494873,70.84111023,0.9361001253,0.2895459533,0.1134237871,-20.77811623,2.688328981,5.125674725,1905,6,24,10,41,41,587955
0,32,100.5235062,-18.82153511,19.92695236,0.9887881279,0.09233115613,0.09202652425,-19.34705353,-5.860388756,15.9557991,1905,6,14,11,54,17,490931,0,32,115.1025696,-35.91095734,70.78190613,0.8889836669,0.2728732228,0.1276098341,-19.30837631,4.63437891,2.615836143,1905,6,24,10,41,41,630958
0,33,100.5563889,-18.8720932,19.87013817,0.9525727034,0.08280386776,0.09379977733,-21.59034157,-4.956865788,18.01868057,1905,6,14,11,54,17,531211,0,33,115.1083984,-35.92849731,70.71555328,0.9237456322,0.3089578152,0.1187435538,-22.36388969,6.024414063,-0.3409599662,1905,6,24,10,41,41,670961
0,34,100.5916901,-18.90894127,19.81245041,0.981036365,0.09495116025,0.1047939509,-21.70637512,0.7075283527,17.0216217,1905,6,14,11,54,17,571219,0,34,115.1095352,-35.93776321,70.65666199,0.9103011489,0.28442505,0.1136602238,-20.39134216,5.746407032,-3.985382795,1905,6,24,10,41,41,710972
0,35,100.6261215,-18.9435482,19.76472282,0.9690452814,0.09923843294,0.1045575216,-17.72260284,1.437296987,16.36837578,1905,6,14,11,54,17,611224,0,35,115.1018753,-35.93486786,70.5922699,0.9087265134,0.3147932589,0.09982884675,-24.95527649,4.842884064,-9.108203888,1905,6,24,10,41,41,752251
0,36,100.6569748,-18.97174263,19.71364403,0.9552373886,0.1045975313,0.1241815388,-19.61779404,3.452848434,14.13358784,1905,6,14,11,54,17,651234,0,36,115.0852509,-35.91898346,70.54048157,0.9065463543,0.3577851355,0.08446064591,-22.36388969,4.008862495,-14.47169399,1905,6,24,10,41,41,792261
0,37,100.6800308,-18.98239517,19.66522598,0.9399759769,0.1097184494,0.139667958,-19.61779404,9.290997505,8.873241425,1905,6,14,11,54,17,691241,0,37,115.0577393,-35.89137268,70.49999237,0.8783249259,0.3318232894,0.08528815955,-20.27531052,2.236567259,-20.17899704,1905,6,24,10,41,41,832271
0,38,100.6885147,-18.97879028,19.61868858,0.9174473286,0.1130530015,0.1355303675,-20.85547066,12.93984032,1.515632868,1905,6,14,11,54,17,734923,0,38,115.0148163,-35.85270691,70.46948242,0.9121179581,0.3496869504,0.05738896877,-20.31398773,-0.8215106726,-25.68001366,1905,6,24,10,41,41,872275
0,39,100.6829987,-18.95747757,19.57494164,0.944457531,0.1298448294,0.1219354123,-21.74505234,18.0134697,-6.082644939,1905,6,14,11,54,17,776910,0,39,114.954834,-35.8040657,70.45724487,0.9308918715,0.3240823746,0.03717387468,-17.1424408,-4.678858757,-31.52484322,1905,6,24,10,41,41,912278
0,40,100.6566315,-18.91918755,19.53509521,0.9511192441,0.1288921088,0.09427265078,-22.94405174,21.94031906,-16.12199783,1905,6,14,11,54,17,821920,0,40,114.883255,-35.75031662,70.4462204,0.906304121,0.2556050122,0.05998974293,-18.76689148,-7.667435169,-35.20364761,1905,6,24,10,41,41,952291
0,41,100.6222076,-18.87527466,19.47441101,0.9477277994,0.1231757328,0.07098391652,-32.69075394,23.12184906,-19.80080223,1905,6,14,11,54,17,863127,0,41,114.8070221,-35.69460297,70.40296936,0.9451842308,0.2363122404,0.04580371082,-32.92282104,-8.814214706,-36.61328125,1905,6,24,10,41,42,40001
0,42,100.5824738,-18.82610703,19.40155411,0.9780082703,0.1148393676,0.05691610277,-38.33765411,24.54663658,-22.48254776,1905,6,14,11,54,17,983133,0,42,114.5874786,-35.53615952,70.19179535,0.9285905361,0.1917721778,0.1068036407,-48.12303543,-6.416403294,-32.14370728,1905,6,24,10,41,42,124999
0,43,100.5140839,-18.74953651,19.19967651,0.9881825447,0.137228474,0.05289672688,-51.06251907,19.82051659,-16.19076157,1905,6,14,11,54,18,23141,0,43,114.4719543,-35.44879913,70.07228851,0.9721944332,0.209874019,0.0712203458,-28.16549873,-5.304374695,-29.80577469,1905,6,24,10,41,42,165006
0,44,100.4938889,-18.72218132,19.10406113,0.970377624,0.1319884658,0.0625905171,-45.1835556,18.56948471,-11.92747402,1905,6,14,11,54,18,40011,0,44,114.4031601,-35.41264725,70.00485992,0.9740112424,0.1870085448,0.08446064591,-40.11681366,-9.300726891,-28.94624138,1905,6,24,10,41,42,206261
0,45,100.4723892,-18.68698883,19.03268242,0.9863656759,0.119603008,0.07382111996,-35.01139832,21.55805969,-13.40587234,1905,6,14,11,54,18,80020,0,45,114.3341904,-35.38348007,69.93582916,0.9562063217,0.1999894679,0.09781915694,-40.61962128,-10.30850315,-26.26449585,1905,6,24,10,41,42,248985
0,46,100.4453049,-18.65109253,18.96269226,1.004897356,0.09638024867,0.05656145141,-35.01139832,21.17580032,-15.64065933,1905,6,14,11,54,18,120027,0,46,114.2776108,-35.36513138,69.87397003,0.9759492278,0.1835549027,0.100538142,-34.85668945,-8.084445953,-21.03853226,1905,6,24,10,41,42,288995
0,47,100.4153595,-18.62517548,18.86846352,0.988424778,0.0925693363,0.07512150705,-45.37694168,16.90144157,-15.3312273,1905,6,14,11,54,18,161785,0,47,114.2254791,-35.35596848,69.81388092,0.9414294362,0.1537821293,0.1241815388,-32.61339951,-8.188698769,-17.32534599,1905,6,24,10,41,42,329004
0,48,100.3851166,-18.60323334,18.77272987,1.01652503,0.120317556,0.06164477766,-46.11181259,15.26814938,-14.74674511,1905,6,14,11,54,18,205893,0,48,114.1851883,-35.3564949,69.76564026,0.943246305,0.1868894547,0.1118869707,-25.38072777,-5.686634541,-12.03061771,1905,6,24,10,41,42,369008
0,49,100.3544235,-18.59148788,18.6805687,1.007683158,0.1148393676,0.05868935585,-44.60339355,11.20229626,-13.57777882,1905,6,14,11,54,18,290755,0,49,114.1537781,-35.36676788,69.74265289,0.9568119645,0.1496139467,0.1004199311,-13.27470112,-4.366101265,-7.629805565,1905,6,24,10,41,42,409015
0,50,100.3130035,-18.59800339,18.54055405,0.9873346686,0.1085275412,0.04887735099,-28.74566078,5.815908909,-6.667128086,1905,6,14,11,54,18,333781,0,50,114.128685,-35.38833237,69.72301483,0.9571753144,0.08613841981,0.09971062839,-10.25786495,-4.157595634,-3.022705078,1905,6,24,10,41,42,449027
0,51,100.2958603,-18.61258698,18.50660324,0.9932696819,0.08554296196,0.01116615441,-18.3414402,2.584076166,-4.948060513,1905,6,14,11,54,18,373794,0,51,114.1097031,-35.41652679,69.68882751,0.9631102681,0.09328388423,0.09155365825,-14.93782997,-3.219321966,0.1059975624,1905,6,24,10,41,42,489034
0,52,100.2861633,-18.64010239,18.46767807,0.9914528131,0.07232385874,-0.007866770029,-19.30837631,-1.586030245,-0.4784853458,1905,6,14,11,54,18,417771,0,52,114.0971603,-35.4472084,69.66179657,0.9580231905,0.1040020809,0.1011292264,-10.41257381,-1.586030245,1.859446287,1905,6,24,10,41,42,529043
0,53,100.2830353,-18.67434883,18.42693329,0.9907261133,0.06958476454,-0.02654504403,-19.19234276,-3.42782712,2.856505632,1905,6,14,11,54,18,457772,0,53,114.0910339,-35.48045731,69.65425873,0.9680762887,0.1044784412,0.1052668244,-1.052644253,0.01251060329,3.544132471,1905,6,24,10,41,42,569045
0,54,100.282402,-18.70777512,18.40572548,0.9886670113,0.07065658271,-0.02867294848,-10.72199345,-2.802311182,3.681657791,1905,6,14,11,54,18,501753,0,54,114.0878296,-35.51705933,69.66885376,0.9746168852,0.08804387599,0.1013656631,8.500673294,0.394770354,5.056911945,1905,6,24,10,41,42,609058
0,55,100.2836914,-18.73763084,18.42057037,0.9972667098,0.06434475631,-0.0273725614,4.63293314,-1.134268641,3.95670867,1905,6,14,11,54,18,541785,0,55,114.0836182,-35.56147003,69.69516754,0.9885458946,0.06243929639,0.08032305539,12.75518703,-0.9257633686,7.807419777,1905,6,24,10,41,42,649069
0,56,100.2817993,-18.7710247,18.46029472,1.017251849,0.05088746548,-0.03292876109,14.61170197,-2.906563997,3.097174883,1905,6,14,11,54,18,581793,0,56,114.0771484,-35.61395264,69.69980621,0.960082233,0.02635470405,0.08280560374,3.66599822,-2.906563997,10.38602066,1905,6,24,10,41,42,689073
0,57,100.2796021,-18.81702805,18.48530388,1.001142621,0.03504835442,-0.03824852034,8.53935051,-7.910691261,4.609954357,1905,6,14,11,54,18,621803,0,57,114.0665665,-35.66745377,69.68712616,0.9650482535,0.1155539081,0.08469707519,-4.494932652,-4.053343296,10.76421547,1905,6,24,10,41,42,729084
0,58,100.2811279,-18.87294388,18.48944855,0.9812785983,0.04374200106,-0.0363570489,0.2623872757,-11.38578033,7.326080799,1905,6,14,11,54,18,665755,0,58,114.0550461,-35.71673965,69.6931839,0.9485756755,0.137228474,0.086233899,2.776417971,-3.705834389,9.217055321,1905,6,24,10,41,42,769096
0,59,100.2786942,-18.92308044,18.50134087,0.9672284126,0.07101385295,-0.03032798693,2.776417971,-9.648236275,5.125674725,1905,6,14,11,54,18,709761,0,59,114.0448151,-35.76041794,69.70914459,0.9545106292,0.1257957369,0.08907110244,7.146964073,-2.55905509,7.188555241,1905,6,24,10,41,42,809121
0,60,100.2732773,-18.96047974,18.52612114,0.970377624,0.06101020426,-0.03115550615,7.765802383,-4.956865788,2.306403875,1905,6,14,11,54,18,749769,0,60,114.0347595,-35.79970551,69.72370148,0.9577808976,0.09471297264,0.09072613716,6.721512794,-2.003040791,5.331962585,1905,6,24,10,41,42,849121
0,61,100.2691345,-18.99195671,18.54870796,0.9799462557,0.05731838197,-0.02808186412,7.069609165,-2.454802275,1.962590337,1905,6,14,11,54,18,789776,0,61,114.0259399,-35.84041595,69.73193359,0.9673495293,0.0825656876,0.09309048206,4.516901016,-1.898788214,5.916445732,1905,6,24,10,41,42,889133
0,62,100.2646408,-19.026577,18.5674572,0.9959343672,0.05898565799,-0.02760899626,5.445158482,-3.740585089,2.237641096,1905,6,14,11,54,18,832774,0,62,114.0186768,-35.88234329,69.73277283,0.9608089924,0.08149386942,0.1023114026,2.002870083,-1.690282822,6.466547012,1905,6,24,10,41,42,929144
0,63,100.2620773,-19.06628036,18.58054543,0.9899993539,0.05839020014,-0.02559930831,3.317901611,-5.512880325,3.578513861,1905,6,14,11,54,18,875773,0,63,114.0158386,-35.92123413,69.72396851,0.9531782866,0.1155539081,0.1084586754,-0.7819024324,0.1862650365,6.053970814,1905,6,24,10,41,42,969150
0,64,100.2647018,-19.10425758,18.58992195,0.9755858779,0.06494020671,-0.02347140387,2.4283216,-4.192346573,5.331962585,1905,6,14,11,54,18,920016,0,64,114.0150986,-35.95222473,69.72479248,0.9477277994,0.1343702972,0.1025478318,3.472611189,2.028062105,3.475369692,1905,6,24,10,41,43,10269
0,65,100.2694321,-19.1321106,18.60943604,0.9642003775,0.06577384472,-0.01401405036,6.953577042,0.08201237768,4.816242218,1905,6,14,11,54,18,963780,0,65,114.0140991,-35.98021698,69.73461151,0.9426406622,0.1250811815,0.09569124877,6.914899826,2.340820074,2.237641096,1905,6,24,10,41,43,44716
0,66,100.2707367,-19.15567589,18.63660049,0.9648060203,0.05660383403,-0.003019876778,9.699672699,1.367795229,2.925268173,1905,6,14,11,54,19,3786,0,66,114.0078964,-36.00641251,69.73812103,0.9516037107,0.1185311899,0.09202652425,3.163192034,1.055037141,0.9999126196,1905,6,24,10,41,43,84723
0,67,100.2700119,-19.1772728,18.65467072,0.9747380018,0.05529383197,0.002890969394,5.677223206,1.889058471,1.825065017,1905,6,14,11,54,19,43986,0,67,113.9987106,-36.03422546,69.7410965,0.9606878757,0.1184120998,0.08848001808,2.15757966,-0.09174205363,1.240581989,1905,6,24,10,41,43,124728
0,68,100.2655869,-19.19983673,18.66770935,0.986002326,0.06756021082,0.01010220218,2.969805002,1.020286322,0.587336421,1905,6,14,11,54,19,86977,0,68,113.9904938,-36.06439209,69.73603058,0.9650482535,0.1098375395,0.09923776239,-0.6271928549,-0.1612438262,2.203259706,1905,6,24,10,41,43,164739
0,69,100.2622147,-19.22619057,18.67437363,0.9927851558,0.08030295372,0.006910344586,0.4170968533,-0.3697491586,1.550014138,1905,6,14,11,54,19,131966,0,69,113.984642,-36.09888077,69.73165894,0.9610512257,0.1249620989,0.1024296135,0.1850324869,-0.05699117109,4.128615379,1905,6,24,10,41,43,204748
0,70,100.2615738,-19.25913811,18.68336487,0.9892726541,0.07946931571,0.0153037468,1.809483171,-2.628556728,3.509751081,1905,6,14,11,54,19,171966,0,70,113.9812317,-36.13378906,69.72866058,0.9551162124,0.1419921219,0.105621472,1.267999649,0.6032756567,4.609954357,1905,6,24,10,41,43,244755
0,71,100.2627182,-19.29057121,18.69835281,0.9837010503,0.07720658928,0.02074172534,4.555578232,-1.794535518,3.95670867,1905,6,14,11,54,19,215062,0,71,113.9776306,-36.16884232,69.7312088,0.9454264641,0.1398484856,0.105621472,3.511288643,0.5685247779,4.678717136,1905,6,24,10,41,43,284997
0,72,100.2636642,-19.32223129,18.71761703,0.9786139131,0.06875112653,0.02452466637,6.334738731,-1.898788214,3.853564739,1905,6,14,11,54,19,257992,0,72,113.9738617,-36.20565033,69.73406219,0.9563274384,0.133893922,0.1044393033,3.588643312,0.255766809,5.297581196,1905,6,24,10,41,43,325000
0,73,100.2634506,-19.35506058,18.72807884,0.9891515374,0.05636565387,0.02499753423,2.621708393,-2.489553213,3.475369692,1905,6,14,11,54,19,297992,0,73,113.9644928,-36.24165344,69.72843933,0.9644426107,0.1335366517,0.1006563604,-1.168676376,-1.273272276,4.403666019,1905,6,24,10,41,43,365008
0,74,100.2590027,-19.38921547,18.73449707,0.9876980186,0.0698229447,0.0212145932,0.2237098813,-3.566830635,2.168878555,1905,6,14,11,54,19,337999,0,74,113.9525986,-36.27719879,69.72775269,0.9605667591,0.145326674,0.1034935713,0.2237098813,-1.968289971,4.02547121,1905,6,24,10,41,43,406803
0,75,100.2538834,-19.4224205,18.7395401,0.9855178595,0.07291930914,0.01885025389,-0.4338058829,-3.288823605,1.790683627,1905,6,14,11,54,19,378003,0,75,113.9423981,-36.3122139,69.72463226,0.9501502514,0.1342512071,0.1105865836,-0.2404188961,-1.481777549,3.88794589,1905,6,24,10,41,43,446809
0,76,100.2509537,-19.45454979,18.74552155,0.9803096056,0.07565840334,0.01991420612,0.1850324869,-2.593806028,2.409548044,1905,6,14,11,54,19,418016,0,76,113.9323196,-36.34557724,69.71916962,0.9403393865,0.1429448426,0.1047939509,-1.20735383,-1.134268641,3.406607151,1905,6,24,10,41,43,486815
0,77,100.2484741,-19.48603439,18.75636292,0.9632313848,0.07422931492,0.02487931773,2.312289476,-2.281047821,2.512691975,1905,6,14,11,54,19,458019,0,77,113.9245605,-36.37705994,69.71372986,0.9250779748,0.1528294086,0.1108230203,-0.5885154605,-0.1959947199,2.994030952,1905,6,24,10,41,43,526817
0,78,100.2458496,-19.51372528,18.76730537,0.953905046,0.0698229447,0.03362736851,2.350966692,-0.7867597938,1.996971726,1905,6,14,11,54,19,502085,0,78,113.9153671,-36.40442276,69.70861053,0.9341621399,0.1724794358,0.1058579087,-0.9752894044,0.01251060329,1.378107429,1905,6,24,10,41,43,569703
0,79,100.2414246,-19.53391838,18.77406311,0.9742535353,0.07851658762,0.04119325057,0.3784194589,1.923809409,0.2779043019,1905,6,14,11,54,19,542088,0,79,113.9026871,-36.42628098,69.70556641,0.9565697312,0.1691448838,0.1033753529,-1.052644253,-0.300247401,-1.131730914,1905,6,24,10,41,43,614716
0,80,100.2357941,-19.55005646,18.77888298,0.9890303612,0.08077932149,0.04887735099,-0.6658702493,3.383346558,-0.6847734451,1905,6,14,11,54,19,585263,0,80,113.8655167,-36.45614243,69.71769714,0.9668650627,0.1680730581,0.1186253354,-0.5885154605,-8.918466568,-0.9254428744,1905,6,24,10,41,43,659702
0,81,100.2309494,-19.56685638,18.78530502,1.006956458,0.08339932561,0.06377268583,0.1850324869,3.209592104,-0.375341326,1905,6,14,11,54,19,625268,0,81,113.8552628,-36.48259354,69.7168045,0.9675918221,0.1543775946,0.1242997572,0.726516068,-0.3697491586,0.6904804707,1905,6,24,10,41,43,704713
0,82,100.2271347,-19.58971977,18.79734993,1.002717137,0.07923113555,0.06672810763,2.699063301,0.9507845044,0.8280058503,1905,6,14,11,54,19,669000,0,82,113.8442535,-36.51597595,69.72090149,0.9537839293,0.1537821293,0.1129509211,2.389644146,-1.516528368,3.234700441,1905,6,24,10,41,43,748720
0,83,100.2201691,-19.620327,18.80994415,0.9898782372,0.06922748685,0.07003817707,2.583030939,-2.489553213,0.6217178106,1905,6,14,11,54,19,711978,0,83,113.8296967,-36.55473709,69.71981812,0.9364634752,0.1490184963,0.1232357994,-0.31777367,-3.39307642,4.850623608,1905,6,24,10,41,43,788729
0,84,100.2129211,-19.6578064,18.81698608,0.967107296,0.06910839677,0.05880757049,0.1463550776,-5.234872818,1.550014138,1905,6,14,11,54,19,752051,0,84,113.8151779,-36.59170532,69.71657562,0.9214443564,0.1750994325,0.1222900674,-1.246031165,-3.045567513,4.36928463,1905,6,24,10,41,43,829712
0,85,100.2080078,-19.69340515,18.82011986,0.9509980679,0.07804022729,0.0540788956,-1.20735383,-4.227097511,2.134497166,1905,6,14,11,54,19,794003,0,85,113.8023376,-36.62295151,69.72402954,0.9060618281,0.1914149076,0.117561385,3.356578827,-1.655532002,2.581454754,1905,6,24,10,41,43,869719
0,86,100.204361,-19.72001839,18.83514023,0.9322242141,0.08601932973,0.05029595271,3.820707798,-0.5435035825,1.378107429,1905,6,14,11,54,19,837953,0,86,113.7912598,-36.64778519,69.74056244,0.9216865897,0.201894924,0.1018385291,7.108286858,-0.1264929324,0.4841924012,1905,6,24,10,41,43,910703
0,87,100.1983032,-19.73542213,18.85703659,0.9638370275,0.08375659585,0.04804983363,6.373416424,3.59185195,-1.028586984,1905,6,14,11,54,19,877998,0,87,113.7808456,-36.67246628,69.75401306,0.9546317458,0.135561198,0.09793737531,6.102674484,-0.1264929324,-0.06590917706,1905,6,24,10,41,43,995025
0,88,100.1923294,-19.75367737,18.86268806,0.9971455336,0.08173204958,0.04651301354,-0.3564510942,2.479823589,-0.6847734451,1905,6,14,11,54,19,918005,0,88,113.7676697,-36.73167419,69.71633911,0.9673495293,0.1756948978,0.122171849,-5.577899456,0.9855354428,3.062793732,1905,6,24,10,41,44,35029
0,89,100.1922836,-19.77898788,18.84781075,1.006350875,0.09090206027,0.05277850851,-8.091930389,0.4295212328,2.547073364,1905,6,14,11,54,19,958006,0,89,113.7678223,-36.76219559,69.70859528,0.9404605031,0.1854603589,0.1239451021,0.4557742476,2.306069136,3.681657791,1905,6,24,10,41,44,40011
0,90,100.1958771,-19.80797195,18.84333038,0.9955709577,0.1020966247,0.05396067724,-3.373288155,-0.5782544613,4.403666019,1905,6,14,11,54,19,998011,0,90,113.7649918,-36.79022217,69.72084808,0.9440941215,0.1860558093,0.1050303876,7.495060921,1.889058471,2.478310823,1905,6,24,10,41,44,83680
0,91,100.1995468,-19.83522224,18.86021614,0.9766759276,0.08197022974,0.05845292285,5.715900421,0.1515141577,4.197378159,1905,6,14,11,54,20,38020,0,91,113.7565308,-36.8185463,69.73023987,0.9405816197,0.1363948435,0.1039664373,5.097062111,-0.02224028297,1.584395528,1905,6,24,10,41,44,123688
0,92,100.1982269,-19.85811615,18.88629723,0.9706198573,0.06613112241,0.0605808273,8.964801788,1.263542533,1.687539577,1905,6,14,11,54,20,41938,0,92,113.7427673,-36.84483719,69.71945953,0.9421561956,0.1736703366,0.1031389162,-4.378900528,-1.203770399,0.518573761,1905,6,24,10,41,44,163697
0,93,100.1940994,-19.88110924,18.89356804,0.9729211926,0.05839020014,0.04840448126,0.726516068,0.8812827468,0.6560991406,1905,6,14,11,54,20,81982,0,93,113.7297897,-36.87034988,69.72273254,0.9440941215,0.1801012605,0.1103501469,1.500064015,-0.9257633686,0.2779043019,1905,6,24,10,41,44,203705
0,94,100.1825485,-19.92443085,18.89979553,0.9783716798,0.0970947966,0.05230564252,0.3397420645,1.541549563,-0.3065786064,1905,6,14,11,54,20,163945,0,94,113.7191849,-36.89444733,69.72992706,0.9534205198,0.1799821705,0.1127144918,3.704675436,0.01251060329,0.03723486513,1905,6,24,10,41,44,243714
0,95,100.1795197,-19.94382286,18.91423225,0.9823687077,0.09769025445,0.05289672688,3.588643312,2.375570774,0.7248618007,1905,6,14,11,54,20,204052,0,95,113.711937,-36.91758347,69.74018097,0.948212266,0.1765285283,0.1065672114,5.638545513,1.159289837,0.03723486513,1905,6,24,10,41,44,283720
0,96,100.1790161,-19.9601593,18.93525505,0.9784927964,0.09447479248,0.05774362013,6.721512794,3.904609919,1.206200719,1905,6,14,11,54,20,244059,0,96,113.702507,-36.93967819,69.7578125,0.9488179088,0.167953968,0.09273582697,7.959189415,0.7422792315,-0.5472480655,1905,6,24,10,41,44,323727
0,97,100.1746597,-19.97844315,18.95651054,0.9742535353,0.05053019151,0.05691610277,6.644157887,2.723079681,-0.1002905294,1905,6,14,11,54,20,284067,0,97,113.691124,-36.96624756,69.76784515,0.9363423586,0.1110284477,0.09817380458,4.63293314,-0.7172580361,0.4498110414,1905,6,24,10,41,44,364774
0,98,100.1689758,-20.00125122,18.96448517,0.9709832072,0.08089841157,0.05443354696,0.6878386736,0.7075283527,0.07161621004,1905,6,14,11,54,20,324067,0,98,113.6775742,-36.99248123,69.76248932,0.9534205198,0.1654530615,0.09959241003,-2.212966204,-1.16901958,0.4498110414,1905,6,24,10,41,44,404786
0,99,100.164238,-20.02502441,18.96240616,0.9846699834,0.09090206027,0.04982308671,-3.450643063,0.4295212328,0.552955091,1905,6,14,11,54,20,364071,0,99,113.665947,-37.01763916,69.75624847,0.9496657252,0.1749803424,0.1156699136,-1.903546929,-0.5087527037,0.243522957,1905,6,24,10,41,44,444793
0,100,100.1616211,-20.04716301,18.96105385,0.9758281112,0.09638024867,0.05124168843,-2.947836876,1.333044291,1.171819329,1905,6,14,11,54,20,404080,0,100,113.6610794,-37.04064941,69.7558136,0.9353733659,0.1806967109,0.1240633205,2.15757966,1.750054955,0.1747602522,1905,6,24,10,41,44,484803
0,101,100.1619415,-20.06622314,18.97136688,0.9649271369,0.0925693363,0.05443354696,2.389644146,2.931585073,1.893827677,1905,6,14,11,54,20,447024,0,101,113.6585083,-37.06007385,69.76317596,0.9430040717,0.1866512746,0.1174431667,5.754577637,3.03583765,-0.7879174948,1905,6,24,10,41,44,524834
0,102,100.1631088,-20.07752228,18.9894886,0.9844277501,0.07935022563,0.06507306546,5.870610237,6.128666878,0.9999126196,1905,6,14,11,54,20,491029,0,102,113.6528549,-37.08012009,69.772995,0.9662594795,0.1672394276,0.1052668244,5.793255329,1.993311167,-1.097349644,1905,6,24,10,41,44,569672
0,103,100.1621857,-20.09151268,19.00464058,1.001869321,0.07863568515,0.07098391652,4.400868893,4.808133125,0.7248618007,1905,6,14,11,54,20,531032,0,103,113.643013,-37.10705185,69.77987671,0.9795828462,0.1391339302,0.09758272022,3.627320766,-0.1959947199,0.9311499,1905,6,24,10,41,44,609678
0,104,100.157135,-20.11636162,19.01430893,1.01083231,0.06934657693,0.05597036704,1.538741469,0.01251060329,0.587336421,1905,6,14,11,54,20,571033,0,104,113.6263885,-37.1422081,69.77217865,0.9410660863,0.1198411882,0.1099954993,-3.60535264,-3.532079935,3.131556273,1905,6,24,10,41,44,649963
0,105,100.1529846,-20.1528492,19.01149178,0.9675918221,0.06779839844,0.03823782876,-3.566675186,-4.470353603,2.512691975,1905,6,14,11,54,20,611044,0,105,113.6088257,-37.1737175,69.75760651,0.9281060696,0.1818876266,0.1030206978,-6.854253769,-3.080318213,2.134497166,1905,6,24,10,41,44,732694
0,106,100.1468582,-20.18340492,19.00547409,0.9461532235,0.08101750165,0.04343937337,-5.307157516,-2.420051575,0.8967685699,1905,6,14,11,54,20,651056,0,106,113.5808563,-37.20750809,69.76371002,0.9298017621,0.1739085317,0.1122416183,4.091449261,1.194040775,-3.813476086,1905,6,24,10,41,44,772740
0,107,100.1421051,-20.19594002,19.00684929,0.9477277994,0.09316479415,0.04225720465,-2.096933842,4.842884064,-0.9254428744,1905,6,14,11,54,20,691065,0,107,113.5714798,-37.22520065,69.77333832,0.948212266,0.1385384798,0.09368156642,4.864997387,1.263542533,-2.40384078,1905,6,24,10,41,44,852748
0,108,100.1379547,-20.20190048,19.01976013,0.9652904868,0.09530843049,0.05289672688,2.853772879,7.518702507,-1.509925842,1905,6,14,11,54,20,731070,0,108,113.547081,-37.27496719,69.73547363,0.9603244662,0.16295214,0.1070400774,-10.14183235,-0.5782544613,0.2091416121,1905,6,24,10,41,44,892751
0,109,100.1294861,-20.23522758,19.02379227,0.9979934096,0.08113659173,0.04946843535,2.737740517,5.711656094,-0.9254428744,1905,6,14,11,54,20,811081,0,109,113.5366135,-37.29802704,69.71880341,0.949060142,0.184031263,0.1235904545,-5.69393158,0.1167632714,-0.3409599662,1905,6,24,10,41,44,933772
0,110,100.1281509,-20.25989151,19.00484848,0.9886670113,0.09626115859,0.05195099115,-10.06447792,0.4990229905,2.065734386,1905,6,14,11,54,20,851092,0,110,113.5304794,-37.32022858,69.71289825,0.9425195456,0.1735512465,0.1194528565,-0.3564510942,1.506798744,-0.2378159165,1905,6,24,10,41,44,973959
0,111,100.1285858,-20.28265572,18.99843979,0.978977263,0.09590388834,0.05325137824,-4.57228756,1.472047806,2.409548044,1905,6,14,11,54,20,891959,0,111,113.521698,-37.34072876,69.71108246,0.9397337437,0.1548539549,0.1090497673,0.6104838252,1.020286322,-1.200493693,1905,6,24,10,41,45,13971
0,112,100.1296005,-20.30184364,19.00459671,0.9736478925,0.0770874992,0.05537928268,0.9199030399,3.00108695,2.237641096,1905,6,14,11,54,20,931966,0,112,113.5079269,-37.35847855,69.69970703,0.9302862287,0.1735512465,0.1095226333,-4.494932652,-0.05699117109,-2.644510269,1905,6,24,10,41,45,41713
0,113,100.1289368,-20.31920433,19.00685692,0.9690452814,0.06053384021,0.05313315988,-0.8592572212,3.522350073,1.171819329,1905,6,14,11,54,20,971968,0,113,113.4939728,-37.37319183,69.69587708,0.9341621399,0.182363987,0.110704802,-1.478095531,0.3600194454,-3.710331917,1905,6,24,10,41,45,85696
0,114,100.125824,-20.33314323,19.00178719,0.9574175477,0.07625386119,0.05490641296,-4.417577744,4.530126095,-0.2034345716,1905,6,14,11,54,21,11974,0,114,113.4837723,-37.38763809,69.69635773,0.9438518882,0.1691448838,0.1040846556,1.113290071,1.541549563,-3.435281038,1905,6,24,10,41,45,130709
0,115,100.1218643,-20.3435688,19.00292969,0.960930109,0.09245024621,0.05549749732,-2.019579172,5.78115797,-0.8222988248,1905,6,14,11,54,21,40003,0,115,113.4725266,-37.40645218,69.69739532,0.9603244662,0.1467557549,0.09758272022,0.9585804343,0.5337738991,-2.16317153,1905,6,24,10,41,45,173799
0,116,100.1188431,-20.35181618,19.00933647,0.9738901258,0.09411752224,0.05880757049,0.3397420645,6.754182816,-0.8910615444,1905,6,14,11,54,21,80240,0,116,113.4628448,-37.42887115,69.68582153,0.9735267758,0.1603321433,0.1058579087,-3.60535264,0.5337738991,-0.5128666759,1905,6,24,10,41,45,213809
0,117,100.1147919,-20.36538506,19.01260567,0.9956920743,0.09673752636,0.05585214868,-1.168676376,4.530126095,-0.409722656,1905,6,14,11,54,21,120245,0,117,113.4568481,-37.45355225,69.68421936,0.9617779255,0.177600354,0.111650534,1.345354438,1.333044291,0.8623872399,1905,6,24,10,41,45,257691
0,118,100.11409,-20.38573647,19.00723076,1.003201604,0.0998338908,0.0543153286,-4.262868404,2.271318197,1.721920967,1905,6,14,11,54,21,160246,0,118,113.4501419,-37.4815712,69.70079041,0.9501502514,0.1512812227,0.1007745788,8.307286263,0.5685247779,1.790683627,1905,6,24,10,41,45,297698
0,119,100.1143417,-20.40742302,19.01288223,0.9943597317,0.103406623,0.05786183476,0.4170968533,1.854307532,2.237641096,1905,6,14,11,54,21,200250,0,119,113.4387207,-37.51267242,69.71486664,0.9446997643,0.1262720972,0.0887164548,6.1413517,-1.203770399,2.409548044,1905,6,24,10,41,45,340972
0,120,100.1129074,-20.42972374,19.03494835,0.9845488667,0.0825656876,0.05396067724,7.185641766,1.437296987,1.653158188,1905,6,14,11,54,21,240258,0,120,113.4231644,-37.54494476,69.71430969,0.9450631142,0.1343702972,0.09604590386,-0.6658702493,-2.628556728,2.409548044,1905,6,24,10,41,45,381982
0,121,100.1083832,-20.45559883,19.05570221,0.9800673723,0.06303475052,0.04450332373,6.296061516,-0.3349982798,0.9655312896,1905,6,14,11,54,21,280271,0,121,113.4063416,-37.57270813,69.71276855,0.9483334422,0.1756948978,0.09427265078,-1.516772985,-2.246297121,0.8967685699,1905,6,24,10,41,45,425691
0,122,100.1008835,-20.48637962,19.0605526,0.9742535353,0.07196658105,0.03079016134,-0.8979346156,-2.663307667,0.587336421,1905,6,14,11,54,21,322951,0,122,113.3936081,-37.59262466,69.72833252,0.9589921236,0.1603321433,0.09462729841,6.373416424,0.01251060329,-1.750595212,1905,6,24,10,41,45,465699
0,123,100.0946579,-20.51350403,19.06045532,0.9644426107,0.08840114623,0.01743165031,-2.947836876,-1.099517822,0.587336421,1905,6,14,11,54,21,362953,0,123,113.3888931,-37.61182022,69.73426819,0.9525727034,0.1221039146,0.09521838278,4.63293314,2.410321712,-1.372400403,1905,6,24,10,41,45,505706
0,124,100.0878372,-20.52811241,19.07401466,0.9781293869,0.1054311693,0.01684056595,2.583030939,3.730855465,-1.269256353,1905,6,14,11,54,21,402969,0,124,113.3878784,-37.63297272,69.73609924,0.9485756755,0.145326674,0.08729784936,3.66599822,3.313844919,-0.1002905294,1905,6,24,10,41,45,545952
0,125,100.0848618,-20.53921127,19.09289169,0.9857600927,0.1029302552,0.01908668876,5.406481266,5.607403755,-0.3409599662,1905,6,14,11,54,21,442972,0,125,113.3845062,-37.65509415,69.73844147,0.9466376901,0.1384193897,0.09332691133,3.395256281,2.410321712,-0.06590917706,1905,6,24,10,41,45,588712
0,126,100.0877304,-20.55471611,19.1090641,0.9786139131,0.09483206272,0.02925334312,5.174417019,4.63437891,2.340785265,1905,6,14,11,54,21,482975,0,126,113.3781967,-37.67738724,69.73320007,0.9465165734,0.1597366929,0.08978040516,-0.4724832773,1.611051321,-0.1346718818,1905,6,24,10,41,45,629788
0,127,100.0894318,-20.57140732,19.12520599,0.9680762887,0.08173204958,0.03906534612,5.135739326,4.043613434,2.100115776,1905,6,14,11,54,21,522975,0,127,113.3714142,-37.69805908,69.73387909,0.9509980679,0.1656912416,0.09829202294,1.925515413,1.680553198,-0.7535361648,1905,6,24,10,41,45,670734
0,128,100.0911407,-20.58961487,19.1316433,0.9735267758,0.07827840745,0.04012929648,1.074612617,3.452848434,2.237641096,1905,6,14,11,54,21,562981,0,128,113.3659286,-37.7195816,69.74118042,0.9556007385,0.1641430557,0.09439086169,4.826320171,1.958560228,-0.3065786064,1905,6,24,10,41,45,710746
0,129,100.0904083,-20.60792923,19.13810158,0.9732845426,0.0925693363,0.04355758801,0.6104838252,3.070588589,1.343726039,1905,6,14,11,54,21,606945,0,129,113.3608246,-37.74385834,69.74671936,0.9557218552,0.1465175748,0.09427265078,4.284836292,1.645802259,0.6560991406,1905,6,24,10,41,45,752683
0,130,100.0895691,-20.62318611,19.15106392,0.9818841815,0.09864298254,0.04060216621,3.279224157,4.252118587,0.9655312896,1905,6,14,11,54,21,649969,0,130,113.3545837,-37.7700386,69.75261688,0.9554796219,0.1531866789,0.08717963099,4.091449261,1.159289837,1.412488818,1905,6,24,10,41,45,792688
0,131,100.0891266,-20.64105606,19.16824913,0.9869713187,0.09673752636,0.04651301354,5.135739326,3.279093981,1.412488818,1905,6,14,11,54,21,689976,0,131,113.346283,-37.79909897,69.76111603,0.9509980679,0.1477084905,0.08741606772,4.594255447,0.08201237768,2.168878555,1905,6,24,10,41,45,835781
0,132,100.0888062,-20.66243362,19.18253899,0.9862445593,0.09030660242,0.04651301354,3.975417376,1.923809409,1.996971726,1905,6,14,11,54,21,729985,0,132,113.3365707,-37.82827759,69.76969147,0.9595977664,0.1472321302,0.08304204047,4.246159077,-0.300247401,2.100115776,1905,6,24,10,41,45,875781
0,133,100.0873184,-20.68608475,19.19761848,0.9774026871,0.09006842226,0.0378831774,4.091449261,0.8812827468,1.928209066,1905,6,14,11,54,21,769993,0,133,113.3280334,-37.8585968,69.77280426,0.9634736776,0.1361566633,0.08469707519,2.350966692,-0.1959947199,2.512691975,1905,6,24,10,41,45,920710
0,134,100.0832672,-20.71119499,19.21279335,0.9813997149,0.09173569828,0.03410023451,3.782030344,-0.02224028297,1.206200719,1905,6,14,11,54,21,810005,0,134,113.3185577,-37.88849258,69.77593994,0.9681974053,0.1323457509,0.09001684189,2.234934568,-0.439250946,2.237641096,1905,6,24,10,41,45,960714
0,135,100.0800171,-20.7351265,19.22579193,0.9856389761,0.09399843216,0.02428823337,2.931127548,0.5337738991,1.309344769,1905,6,14,11,54,21,852063,0,135,113.3092575,-37.9175148,69.7738266,0.9587498903,0.1367521137,0.09037148952,0.06900028884,-0.3349982798,1.825065017,1905,6,24,10,41,46,5703
0,136,100.076622,-20.76174545,19.23629379,0.9912105799,0.09233115613,0.01908668876,1.848160625,-0.5435035825,1.584395528,1905,6,14,11,54,21,896947,0,136,113.2979736,-37.94261551,69.77354431,0.9505136013,0.1468748599,0.08883467317,0.3784194589,-0.2654964924,0.3466669917,1905,6,24,10,41,46,42083
0,137,100.0742188,-20.78943825,19.24490929,0.987213552,0.0843520537,0.01837738603,1.267999649,-0.8215106726,2.100115776,1905,6,14,11,54,21,939949,0,137,113.2847366,-37.96081161,69.77739716,0.9398548603,0.1575930417,0.09450908005,1.616096258,0.1167632714,-2.40384078,1905,6,24,10,41,46,86088
0,138,100.071907,-20.81346321,19.25045967,0.9759492278,0.07827840745,0.01459444501,0.03032289073,0.6380265355,1.618776917,1905,6,14,11,54,21,981943,0,138,113.2684326,-37.9743576,69.79008484,0.944457531,0.1531866789,0.05585214868,3.859385014,0.04726149142,-4.363577366,1905,6,24,10,41,46,166094
0,139,100.0677338,-20.83267403,19.26079559,0.9644426107,0.07458658516,0.01518552937,1.770805836,2.306069136,0.3122856617,1905,6,14,11,54,22,22013,0,139,113.2346268,-37.9999733,69.80309296,0.9593555331,0.1609275937,0.07937731594,0.4557742476,-0.09174205363,-4.913679123,1905,6,24,10,41,46,206099
0,140,100.060997,-20.84317017,19.27418327,0.9570541978,0.08173204958,0.05313315988,2.737740517,5.398898125,-1.853739262,1905,6,14,11,54,22,40009,0,140,113.2196655,-38.01775742,69.811203,0.9767970443,0.1356802881,0.08162343502,2.699063301,-0.3697491586,-2.919560909,1905,6,24,10,41,46,251004
0,141,100.0527954,-20.84907532,19.29030609,0.9675918221,0.08721023798,0.02026885748,3.549965858,6.997438908,-3.022705078,1905,6,14,11,54,22,80012,0,141,113.2077637,-38.04573822,69.80725098,0.9840644002,0.1391339302,0.08481529355,-1.323385954,-0.8562615514,1.274963379,1905,6,24,10,41,46,291082
0,142,100.0440369,-20.85502434,19.29763412,0.972800076,0.09518934041,0.03268163279,-0.2404188961,6.893186569,-3.228993177,1905,6,14,11,54,22,120012,0,142,113.1966705,-38.08213806,69.8036499,0.9556007385,0.134132117,0.1019567475,-0.6658702493,-1.864037275,4.506810188,1905,6,24,10,41,46,332086
0,143,100.0360413,-20.86055183,19.30685997,0.9998102188,0.1131720915,0.04296650365,0.5718064308,7.136442661,-2.919560909,1905,6,14,11,54,22,164030,0,143,113.1853027,-38.12120056,69.7943573,0.9398548603,0.1618803293,0.1059761271,-3.063868999,-2.315798759,5.641394615,1905,6,24,10,41,46,372090
0,144,100.0285034,-20.87667084,19.31442261,1.01119566,0.1072175354,0.04793161526,0.06900028884,3.03583765,-1.269256353,1905,6,14,11,54,22,204030,0,144,113.1709595,-38.15548325,69.79366302,0.9377958179,0.1979649216,0.1062125564,-0.4338058829,-2.420051575,3.81918335,1905,6,24,10,41,46,413258
0,145,100.0241394,-20.90675926,19.3207283,1.007804275,0.09733297676,0.05396067724,0.06900028884,-2.037791729,1.721920967,1905,6,14,11,54,22,244933,0,145,113.1539078,-38.18465805,69.808815,0.9501502514,0.1729557961,0.1131873578,5.36780405,-2.663307667,1.309344769,1905,6,24,10,41,46,453266
0,146,100.0193481,-20.94364929,19.32308197,0.9858812094,0.08351841569,0.04875913262,-1.55545032,-4.748360634,2.547073364,1905,6,14,11,54,22,289946,0,146,113.1360626,-38.21556473,69.81929779,0.9774026871,0.1523530483,0.1068036407,3.240546703,-3.149820089,1.721920967,1905,6,24,10,41,46,494070
0,147,100.0145416,-20.9786129,19.32905579,0.9618990421,0.07625386119,0.05005951971,-0.0470319055,-3.983841419,2.203259706,1905,6,14,11,54,22,334973,0,147,113.1152725,-38.25130844,69.83759308,1.012891412,0.1661676019,0.09309048206,5.329126358,-4.60935688,3.303462982,1905,6,24,10,41,46,534081
0,148,100.0035095,-21.00229263,19.34319496,0.9742535353,0.06922748685,0.05005951971,2.466999054,-0.3349982798,-1.716213942,1905,6,14,11,54,22,374985,0,148,113.0896454,-38.29430389,69.85778046,0.9920584559,0.1148393676,0.1070400774,5.290449142,-7.215673447,5.194437027,1905,6,24,10,41,46,574094
0,149,99.99057007,-21.02212143,19.36094856,0.9961766005,0.0825656876,0.05963509157,3.627320766,0.9160336256,-2.919560909,1905,6,14,11,54,22,419950,0,149,113.0767822,-38.34236526,69.83032227,0.9190219045,0.1784339845,0.1336388886,-10.33521938,-4.157595634,8.873241425,1905,6,24,10,41,46,614106
0,150,99.97563171,-21.04812241,19.38478851,1.036510229,0.09685661644,0.05880757049,5.793255329,-1.794535518,-2.7476542,1905,6,14,11,54,22,460025,0,150,113.0678864,-38.38618469,69.8309021,0.9181740284,0.2436958849,0.1259547919,1.654773593,-2.107293606,8.391902924,1905,6,24,10,41,46,694117
0,151,99.95766449,-21.08084869,19.40476036,1.047290087,0.08649569005,0.04828626662,3.782030344,-4.817862511,-2.953942299,1905,6,14,11,54,22,500032,0,151,113.0690308,-38.48151779,69.86476135,0.9180529118,0.2080876529,0.1298559457,11.59486485,-0.05699117109,11.27993584,1905,6,24,10,41,46,734268
0,152,99.94975281,-21.12614632,19.40139389,0.9709832072,0.0816129595,0.06164477766,-4.378900528,-8.466705322,2.478310823,1905,6,14,11,54,22,540037,0,152,113.074379,-38.53844833,69.89067841,0.9359789491,0.2026094645,0.1264276654,15.30789471,0.01251060329,14.23673153,1905,6,24,10,41,46,774278
0,153,99.94552612,-21.16113853,19.41661644,0.9488179088,0.106622085,0.08788893372,3.782030344,-3.983841419,2.443929434,1905,6,14,11,54,22,580047,0,153,113.0819397,-38.60173798,69.90677643,0.9348888993,0.1814112663,0.1321020722,12.17502594,-0.2307455987,16.78095245,1905,6,24,10,41,46,817065
0,154,99.9416275,-21.19137001,19.44763565,0.9519670606,0.088877514,0.0891893208,10.51189804,-2.037791729,1.825065017,1905,6,14,11,54,22,620061,0,154,113.080658,-38.66931915,69.89170837,0.9317396879,0.2460777164,0.08942575753,-3.450643063,-3.045567513,18.12182426,1905,6,24,10,41,46,860251
0,155,99.94120789,-21.22541618,19.48222733,0.958871007,0.08530478179,0.1023114026,12.60047722,-3.080318213,3.544132471,1905,6,14,11,54,22,660072,0,155,113.0622787,-38.73602295,69.88658142,0.9096955061,0.2676331997,0.1752512455,-2.251643419,-8.327701569,15.99018097,1905,6,24,10,41,46,900261
0,156,99.93896484,-21.26152802,19.52611351,0.9729211926,0.0825656876,0.1085768938,16.27482986,-4.122844696,3.131556273,1905,6,14,11,54,22,700080,0,156,113.0580368,-38.80115891,69.8968811,0.9001268744,0.2877596021,0.2049236894,7.843157291,-4.227097511,16.81533241,1905,6,24,10,41,46,940271
0,157,99.93390656,-21.30356789,19.57164574,0.9804307222,0.0753011331,0.1123598367,16.54557228,-6.798663139,2.925268173,1905,6,14,11,54,22,740083,0,157,113.079216,-38.86914063,69.96226501,0.9076364636,0.2748977542,0.1874275953,36.03897858,2.931585073,20.49413681,1905,6,24,10,41,46,980277
0,158,99.9243927,-21.34871292,19.61672401,0.9740112424,0.05779474601,0.1442784071,15.8880558,-8.570958138,1.584395528,1905,6,14,11,54,22,780983,0,158,113.1096191,-38.9371109,70.07700348,0.9336776733,0.247149542,0.1562183201,57.62096786,5.746407032,21.21614456,1905,6,24,10,41,47,20281
0,159,99.89360046,-21.39086151,19.6883564,0.9572964311,0.03885926679,0.1338753253,23.85560036,-10.13474846,-6.495221138,1905,6,14,11,54,22,824939,0,159,113.1430893,-39.00553131,70.19530487,0.9264103174,0.2176149487,0.1382493526,59.67086792,6.64993,21.52557755,1905,6,24,10,41,47,40013
0,160,99.86962128,-21.43092346,19.72075844,0.9312552214,0.05350746587,0.1467609704,8.461996078,-8.466705322,-4.363577366,1905,6,14,11,54,22,864941,0,160,113.1751633,-39.07256317,70.28869629,0.9227766991,0.2216640413,0.1104683653,49.03458405,6.754182816,21.14738274,1905,6,24,10,41,47,80018
0,161,99.85987091,-21.46492577,19.79316711,0.972800076,0.1200793684,0.14061369,26.75640488,-4.331350327,0.2779043019,1905,6,14,11,54,22,904955,0,161,113.199913,-39.13139725,70.34729004,0.8931018114,0.2266658694,0.1070400774,33.09949875,5.676905632,17.22790909,1905,6,24,10,41,47,120701
0,162,99.85630798,-21.50088882,19.92712784,0.9873346686,0.07839749753,0.111177668,53.63719559,-4.227097511,2.478310823,1905,6,14,11,54,22,947927,0,162,113.2202225,-39.18228912,70.38220215,0.8969777226,0.2718013823,0.09911954403,22.26982689,5.676905632,14.2711134,1905,6,24,10,41,47,163696
0,163,99.85781097,-21.53954887,20.06758308,0.9790983796,0.06089111418,0.09474551678,57.23419189,-4.574606419,4.747479916,1905,6,14,11,54,22,989923,0,163,113.2282028,-39.21513748,70.42235565,0.9041239023,0.2833532393,0.1019567475,21.22553635,4.460624218,6.191496372,1905,6,24,10,41,47,203705
0,164,99.86476135,-21.57617378,20.18382454,0.9661383629,0.04016926885,0.08126878738,47.99029541,-3.010816574,6.329021931,1905,6,14,11,54,23,33012,0,164,113.2345047,-39.23561478,70.44596863,0.877961576,0.2671568394,0.1257183552,14.65037918,5.468400002,1.103056669,1905,6,24,10,41,47,243709
0,165,99.87297821,-21.6121769,20.25679398,0.9580231905,0.04529018328,0.0698017478,30.04398346,-2.593806028,6.775979042,1905,6,14,11,54,23,40001,0,165,113.2484818,-39.2468338,70.45587158,0.8591876626,0.2964532375,0.1427415907,11.3628006,8.943489075,-1.303637743,1905,6,24,10,41,47,283719
0,166,99.8792572,-21.64341927,20.31061363,0.9369479418,0.06696476042,0.08150522411,21.61231041,-1.030016065,5.366343975,1905,6,14,11,54,23,83005,0,166,113.2720032,-39.2499733,70.49173737,0.9046083689,0.3482578397,0.1423869431,23.93295479,12.93984032,-3.022705078,1905,6,24,10,41,47,363737
0,167,99.87902832,-21.66140556,20.34336472,0.9457898736,0.04779109731,0.07204786688,11.94296169,3.313844919,1.034294009,1905,6,14,11,54,23,123018,1001,167,113.3255539,-39.23853302,70.65253448,1.030817509,0.2542949915,0.09911954403,44.31594467,14.85113907,-6.701508999,1905,6,24,10,41,47,403984
0,168,99.882164,-21.6692028,20.34856987,0.9209598303,0.06684566289,0.09427265078,0.8812256455,7.727207661,0.8280058503,1905,6,14,11,54,23,167932,0,168,113.3466949,-39.24923706,70.71670532,0.9784927964,0.1746230721,0.1109412313,34.80130386,11.13279438,-1.681832552,1905,6,24,10,41,47,443990
0,169,99.89098358,-21.66567802,20.3516655,0.9192641377,0.09411752224,0.1042028666,0.6104838252,12.87033844,1.412488818,1905,6,14,11,54,23,207939,0,169,113.3612289,-39.28437805,70.76703644,0.9162361026,0.1597366929,0.1143695265,27.68466187,5.815908909,6.741597652,1905,6,24,10,41,47,483997
0,170,99.90139771,-21.64899063,20.39478493,0.9552373886,0.1078129932,0.1112958863,17.51250648,18.22197533,0.1747602522,1905,6,14,11,54,23,247951,0,170,113.3705902,-39.34339142,70.82145691,0.930165112,0.2208303958,0.08788893372,27.37524223,1.437296987,15.71512985,1905,6,24,10,41,47,523999
1001,171,99.90917206,-21.61832047,20.47203445,1.044019699,0.101739347,0.1038482189,31.39769173,23.36510658,-2.85079813,1905,6,14,11,54,23,287962,0,171,113.3653946,-39.40888214,70.87107849,0.9562063217,0.2384558767,0.05939865485,21.30289078,-3.462578058,16.98723984,1905,6,24,10,41,47,564005
0,172,99.91693115,-21.58810234,20.53987503,1.09283185,0.06005747616,0.1010110155,27.72333908,23.26085281,-2.919560909,1905,6,14,11,54,23,327964,0,172,113.3412781,-39.46574783,70.90288544,0.9356155992,0.2673950195,0.03445488587,8.887447357,-7.702186108,12.20823193,1905,6,24,10,41,47,604766
0,173,99.92894745,-21.58879471,20.56450081,1.039053798,0.06887021661,0.1037300006,10.35718822,11.75831032,3.269081831,1905,6,14,11,54,23,367977,0,173,113.3016129,-39.51293945,70.92633057,0.9314974546,0.2933568656,0.03906534612,1.500064015,-10.96877003,7.154173851,1905,6,24,10,41,47,644771
0,174,99.93616486,-21.625,20.62530136,0.9903627038,0.09935752302,0.105148606,24.39708328,-2.83706212,6.70721674,1905,6,14,11,54,23,407978,0,174,113.2510223,-39.55513,70.94241333,0.9478489161,0.2620359361,0.0471040979,-4.069481373,-13.64458847,3.716039181,1905,6,24,10,41,47,685720
0,175,99.94110107,-21.68523407,20.71230125,0.9956920743,0.06946566701,0.08375134319,35.1493988,-12.46305847,9.388961792,1905,6,14,11,54,23,447990,0,175,113.1864471,-39.59651184,70.94006348,0.9455475807,0.2165431231,0.04970486835,-14.97650719,-17.81469536,1.481251478,1905,6,24,10,41,47,725732
0,176,99.93927002,-21.75111389,20.77495003,0.9936330318,0.05684201792,0.03398201987,23.93295479,-15.59063816,7.669894218,1905,6,14,11,54,23,487997,0,176,113.1092072,-39.63939285,70.90031433,0.9190219045,0.2403613329,0.06672810763,-33.00017548,-21.67204285,0.9999126196,1905,6,24,10,41,47,765984
0,177,99.93141174,-21.81169128,20.7996006,0.969166398,0.06672657281,0.02984442748,7.03093195,-14.37435722,4.678717136,1905,6,14,11,54,23,528004,0,177,113.0256577,-39.68112183,70.8493042,0.9012169838,0.2691814005,0.08942575753,-38.95649338,-23.47908974,-0.03152783215,1905,6,24,10,41,47,806701
0,178,99.91280365,-21.85769272,20.80385399,0.9615356922,0.09280751646,0.0311448127,-3.373288155,-10.20425034,-1.166112304,1905,6,14,11,54,23,572931,0,178,112.9383469,-39.71769333,70.79684448,0.9251990914,0.3126496375,0.117561385,-40.27152634,-23.96560097,-2.12879014,1905,6,24,10,41,47,846706
0,179,99.88137054,-21.89103699,20.80462456,0.9834587574,0.08935387433,0.03587348759,-6.699543953,-7.041919231,-7.870475292,1905,6,14,11,54,23,613940,0,179,112.8511353,-39.74423218,70.73603821,0.9767970443,0.3742197156,0.1551543772,-43.36571503,-22.78407097,-5.910737991,1905,6,24,10,41,47,886711
0,180,99.84148407,-21.92934418,20.76764488,0.9625046849,0.07160931081,0.04958665371,-23.60156631,-10.09999752,-10.20840645,1905,6,14,11,54,23,653942,0,180,112.776535,-39.75613785,70.69152832,0.9771604538,0.3484960496,0.1750148088,-33.15488434,-17.29343033,-10.41469479,1905,6,24,10,41,47,926723
0,181,99.80195618,-21.9746151,20.6987381,0.969166398,0.09078297019,0.06613702327,-36.90658951,-12.8105669,-9.245729446,1905,6,14,11,54,23,697221,0,181,112.7139206,-39.76688004,70.63237,0.8602777719,0.2482213676,0.1947570443,-35.12742996,-14.23535347,-10.41469479,1905,6,24,10,41,47,966735
0,182,99.75848389,-22.02233315,20.61162949,0.9599611163,0.08840114623,0.08008661866,-45.06752396,-14.27010441,-10.17402554,1905,6,14,11,54,23,737228,0,182,112.6594009,-39.79203796,70.55487061,0.7677406073,0.2334540486,0.2081155479,-39.76871872,-14.13110065,-4.157289505,1905,6,24,10,41,48,6738
0,183,99.71433258,-22.06194878,20.51938629,0.994238615,0.09114024043,0.1030206978,-47.27213287,-11.17727566,-11.61804199,1905,6,14,11,54,23,777234,0,183,112.6098862,-39.83039856,70.48412323,0.7963253856,0.3257496357,0.2100070268,-36.09436417,-14.06159878,2.168878555,1905,6,24,10,41,48,40004
0,184,99.67021942,-22.08576775,20.4370575,1.038932681,0.1155539081,0.1071582958,-43.21100616,-5.026367664,-13.92159271,1905,6,14,11,54,23,817245,0,184,112.5511246,-39.86820221,70.43536377,0.8951608539,0.3742197156,0.1957027763,-30.56349754,-16.38990784,1.06867528,1905,6,24,10,41,48,80011
0,185,99.6329422,-22.0982933,20.35419464,1.037721395,0.1043593511,0.1446330696,-42.12804031,0.3600194454,-13.16520309,1905,6,14,11,54,23,857256,0,185,112.4914627,-39.9023056,70.38121033,0.9224132895,0.3105059862,0.2660418451,-31.60778809,-16.91117096,-1.234874964,1905,6,24,10,41,48,123320
0,186,99.61107635,-22.12547112,20.25341415,0.9270159602,0.05136382952,0.1777338088,-46.69197464,-3.219321966,-5.670068741,1905,6,14,11,54,23,900904,0,186,112.4417496,-39.94047546,70.31712341,0.8808684945,0.3091959953,0.2697065771,-32.80678558,-14.72186565,1.343726039,1905,6,24,10,41,48,163325
0,187,99.58647156,-22.23701859,20.04357338,0.9001268744,0.04731473327,0.2104798853,-49.16732788,-11.59428596,2.272022724,1905,6,14,11,54,23,980916,0,187,112.4087601,-39.98757935,70.25949097,0.8603988886,0.3221769035,0.2895670235,-25.57411385,-11.42053127,6.397784233,1905,6,24,10,41,48,203334
0,188,99.56102753,-22.28321648,19.96549606,0.9754647017,0.0587474741,0.2095341533,-37.68013763,-11.14252472,-4.329195976,1905,6,14,11,54,24,21898,0,188,112.3879471,-40.03928757,70.21292114,0.8726322055,0.3718378842,0.2817646861,-18.18673134,-8.15394783,9.973444939,1905,6,24,10,41,48,246943
0,189,99.54001617,-22.33156013,19.87046814,0.9916950464,0.0542220138,0.2232473195,-44.02323151,-11.38578033,-2.5413661,1905,6,14,11,54,24,40005,0,189,112.3683777,-40.08885956,70.18737793,0.8645170331,0.3673124313,0.2966600358,-9.174897194,-7.806438446,9.079529762,1905,6,24,10,41,48,287965
0,190,99.53462982,-22.39055252,19.7598629,0.9709832072,0.06196293235,0.2455903143,-48.00700378,-13.54033566,4.644335747,1905,6,14,11,54,24,80060,0,190,112.3444366,-40.13951111,70.15322876,0.8650014997,0.3823179007,0.2967782319,-13.816185,-9.196475029,9.113910675,1905,6,24,10,41,48,327969
0,191,99.54356384,-22.45992088,19.67527199,0.962141335,0.06732203066,0.2636775076,-34.89536667,-15.7643919,11.27993584,1905,6,14,11,54,24,120069,0,191,112.3162994,-40.19270325,70.13009644,0.8677873015,0.3863669932,0.3023344278,-10.45125198,-10.82976627,9.560868263,1905,6,24,10,41,48,367978
0,192,99.54962921,-22.5329113,19.63586617,0.9615356922,0.05958111212,0.2739623785,-16.40756989,-17.57143784,10.62668991,1905,6,14,11,54,24,160074,0,192,112.2936707,-40.25800323,70.11956024,0.8602777719,0.3860097229,0.3026890755,-3.914771795,-10.96877003,14.71807098,1905,6,24,10,41,48,407981
0,193,99.55050659,-22.60118866,19.60822678,0.9547528625,0.04910109937,0.2978422046,-12.1530571,-16.38990784,8.013708115,1905,6,14,11,54,24,200075,0,193,112.2776031,-40.33498764,70.10651398,0.8555539846,0.3519496918,0.3145107925,-3.025191545,-11.07302284,19.39393425,1905,6,24,10,41,48,447983
0,194,99.55823517,-22.67104721,19.55628395,0.959718883,0.05600837991,0.2944138944,-21.28092194,-16.14665222,10.62668991,1905,6,14,11,54,24,240081,0,194,112.2647095,-40.43530273,70.08016205,0.8550695181,0.3538551331,0.3297607601,-7.357059956,-13.67933941,28.36746597,1905,6,24,10,41,48,487988
0,195,99.56984711,-22.75518036,19.4992218,0.9712254405,0.09769025445,0.3504487276,-22.98272896,-21.32453346,14.13358784,1905,6,14,11,54,24,280083,0,195,112.2491837,-40.55854797,70.03800964,0.8388391733,0.3833897114,0.3338983655,-14.20295906,-17.64093971,36.99718475,1905,6,24,10,41,48,528225
0,196,99.59581757,-22.85730743,19.44067764,0.9663805962,0.1167448238,0.379648298,-21.39695549,-26.60666847,21.83501053,1905,6,14,11,54,24,320089,0,196,112.2146301,-40.69542694,69.99073029,0.8125557303,0.4387670755,0.3549409807,-20.66208458,-25.3556366,40.60722733,1905,6,24,10,41,48,568964
0,197,99.63545227,-22.98851013,19.3846035,0.9598399997,0.1156730056,0.3921793103,-18.10937691,-36.33691788,30.70539665,1905,6,14,11,54,24,360110,0,197,112.1884842,-40.84870148,69.92996216,0.7825174928,0.5418999195,0.3434739411,-23.94966316,-24.97337723,49.03065491,1905,6,24,10,41,48,608976
0,198,99.67703247,-23.1462841,19.34220123,0.9660172462,0.1200793684,0.4499873817,-11.92099285,-46.5884285,34.96868515,1905,6,14,11,54,24,400120,0,198,112.1575851,-41.00904846,69.93032074,0.7475132346,0.5890600085,0.3435921371,-0.4338058829,-27.54494286,52.3312645,1905,6,24,10,41,48,649254
0,199,99.71763611,-23.32797432,19.27514267,0.9308918715,0.1175784618,0.4905357361,-22.28653526,-56.17967224,37.68481064,1905,6,14,11,54,24,443048,0,199,112.1475143,-41.19242096,69.94612122,0.7052416801,0.6106154919,0.3543498814,12.09767056,-25.56414223,64.26159668,1905,6,24,10,41,48,689963
0,200,99.76737976,-23.52662277,19.17068481,0.9077575803,0.1892712712,0.4931365252,-37.06130219,-61.9135704,43.5296402,1905,6,14,11,54,24,485325,0,200,112.1568222,-41.38121033,69.96652222,0.6593364477,0.6819509864,0.3290514648,17.97663498,-21.11602974,71.55043793,1905,6,24,10,41,48,729982
0,201,99.82357788,-23.73397636,19.07951164,0.8783249259,0.3153887093,0.5588651299,-31.53043365,-64.97164917,47.44911575,1905,6,14,11,54,24,527067,0,201,112.158699,-41.57866287,69.99824524,0.6553394198,0.6862382889,0.3190030158,19.98785973,-24.90387535,74.33532715,1905,6,24,10,41,48,769991
0,202,99.88394165,-23.94195366,19.03729057,0.8085587025,0.3816033602,0.5909019113,-11.26347733,-65.145401,49.40885162,1905,6,14,11,54,24,570099,0,202,112.1606979,-41.76945877,70.00886536,0.5567461252,0.6690891981,0.3726735115,14.53434658,-28.27471161,75.67620087,1905,6,24,10,41,48,812954
0,203,99.95773315,-24.14776993,19.03021049,0.7407304049,0.4014915526,0.6054425836,5.213094234,-62.95609665,54.15347672,1905,6,14,11,54,24,610104,0,203,112.1678619,-41.9526062,70.03218079,0.4849208593,0.7503092885,0.3967897594,17.86060333,-27.85770035,77.84222412,1905,6,24,10,41,48,857934
0,204,100.0300369,-24.34897232,19.03858757,0.7168693542,0.3745769858,0.6263669729,11.67221928,-61.28805542,52.77822113,1905,6,14,11,54,24,650104,0,204,112.1766586,-42.13460541,70.09313965,0.4582740366,0.7911575437,0.4094389677,31.62975693,-27.96195412,78.39232635,1905,6,24,10,41,48,897943
0,205,100.1102982,-24.55581093,19.0232296,0.6852565408,0.3956561089,0.6286131144,2.583030939,-62.88659286,56.66331482,1905,6,14,11,54,24,690118,0,205,112.1780624,-42.31180573,70.16864777,0.4035269022,0.8094975352,0.4092025459,34.10511017,-29.38673973,76.32944489,1905,6,24,10,41,48,937952
0,206,100.193779,-24.76985359,18.97155571,0.5993810892,0.4200697541,0.6279038191,-12.96528244,-66.15317535,59.41382217,1905,6,14,11,54,24,731014,0,206,112.1754456,-42.4875145,70.24989319,0.3667058349,0.8323630095,0.4113304317,34.33717346,-30.29026222,75.5386734,1905,6,24,10,41,48,977961
0,207,100.2712936,-24.96896172,18.92107201,0.5239220858,0.4686589241,0.6503650546,-14.93782997,-62.57383728,56.35388184,1905,6,14,11,54,24,811094,0,207,112.1665115,-42.65777206,70.3467865,0.3172880709,0.8179529905,0.4244525135,38.66904449,-31.40229034,72.47873688,1905,6,24,10,41,49,80260
0,208,100.4366379,-25.3147831,18.7953968,0.4284780324,0.5328490138,0.6837021708,-16.60095787,-51.34930038,54.56605148,1905,6,14,11,54,24,851094,0,208,112.1326447,-43.15233612,70.57802582,0.1890199184,0.8674948812,0.4478594661,28.03275871,-30.15125847,65.36179352,1905,6,24,10,41,49,121978
0,209,100.5039597,-25.46573448,18.74998093,0.373973161,0.5199871659,0.6521382928,-16.52360344,-49.43799973,48.41179276,1905,6,14,11,54,24,891997,0,209,112.1183777,-43.28156662,70.65855408,0.1792090535,0.857729435,0.4990473688,29.73456383,-27.23218536,55.49435043,1905,6,24,10,41,49,165280
0,210,100.5736465,-25.60315895,18.7009964,0.3297636509,0.6291936636,0.6600587964,-17.76128006,-45.51115036,48.03359604,1905,6,14,11,54,24,972052,0,210,112.1082001,-43.38967133,70.70178986,0.1557113826,0.7980647683,0.4685474336,15.77202415,-23.27058411,47.79292679,1905,6,24,10,41,49,205291
0,211,100.6839828,-25.8508091,18.68798447,0.229716897,0.6013263464,0.6469367146,-2.909159422,-42.07081223,39.02568436,1905,6,14,11,54,25,15012,0,211,112.0791168,-43.49087524,70.73493195,0.2186948061,0.7809156775,0.4843884706,6.798867702,-27.92720222,42.84201431,1905,6,24,10,41,49,245295
0,212,100.7144012,-25.95013428,18.67072868,0.2237819284,0.6250255108,0.6236479878,-11.41818619,-37.27519226,29.46766853,1905,6,14,11,54,25,44978,0,212,112.0444489,-43.58577347,70.75836945,0.18914105,0.7815111279,0.4796598256,0.9972578883,-28.55271912,39.91959763,1905,6,24,10,41,49,288995
0,213,100.724205,-26.02455139,18.66360283,0.2041601688,0.6334809661,0.6195104122,-10.87670326,-30.32501411,18.87821388,1905,6,14,11,54,25,89996,0,213,112.0135269,-43.66464233,70.74741364,0.1305180192,0.7067219615,0.5566189885,-10.91538048,-25.39038849,32.87142181,1905,6,24,10,41,49,329001
0,214,100.7136154,-26.10726357,18.72433662,0.2821627259,0.6712328196,0.6104077101,13.45137978,-34.70362473,12.41452026,1905,6,14,11,54,25,131075,0,214,111.9918365,-43.75546265,70.70323944,0.09611939639,0.8019948006,0.5211539268,-22.71198654,-24.20885849,39.33511734,1905,6,24,10,41,49,370057
0,215,100.6771469,-26.19755745,18.81261826,0.269929409,0.6101390719,0.61785537,20.25860214,-41.41054535,4.438047409,1905,6,14,11,54,25,171082,0,215,111.9803162,-43.83613968,70.72130585,0.04561154172,0.7810347676,0.5139427185,5.019707203,-19.93449783,36.44708252,1905,6,24,10,41,49,499340
0,216,100.6354599,-26.2864933,18.82551193,0.2792557776,0.5934663415,0.5656034946,-12.2690897,-41.02828598,2.306403875,1905,6,14,11,54,25,211091,0,216,111.957016,-43.88775253,70.74200439,-0.008045481518,0.7459028959,0.5618205667,-23.17611504,-22.08905411,15.44007874,1905,6,24,10,41,49,540273
0,217,100.6243134,-26.37153053,18.80910873,0.225114271,0.6671836972,0.632514298,-18.61218262,-37.24044037,12.93024063,1905,6,14,11,54,25,252259,0,217,111.8842545,-43.95573044,70.65280151,-0.03396558017,0.6683746576,0.5140609145,-30.60217476,-18.82246971,15.92141819,1905,6,24,10,41,49,580279
0,218,100.5804825,-26.50311089,18.90812492,0.17024602,0.5084353089,0.650246799,7.959189415,-33.10508347,8.529427528,1905,6,14,11,54,25,380004,0,218,111.8547363,-44.00236893,70.59886932,-0.06412494183,0.7210128903,0.491481483,-29.24846649,-20.14300346,21.52557755,1905,6,24,10,41,49,620285
0,219,100.4960632,-26.61225128,18.83504677,0.1188903227,0.5806044936,0.6708165407,-33.96710968,-31.8540535,-4.432340145,1905,6,14,11,54,25,420007,0,219,111.8411789,-44.04919815,70.58372498,-0.09828133136,0.7175592184,0.5267101526,-9.058865547,-15.79914284,22.8320694,1905,6,24,10,41,49,660289
0,220,100.441597,-26.66095352,18.79078293,0.09527154267,0.5956099629,0.6589948535,-37.40939713,-30.60302162,-7.079704285,1905,6,14,11,54,25,460261,0,220,111.8528442,-44.08785248,70.60274506,-0.1205677688,0.791633904,0.5008206367,11.13073635,-7.667435169,22.7289238,1905,6,24,10,41,49,700289
0,221,100.4137039,-26.71397972,18.71726036,0.0875197351,0.6519400477,0.6361789703,-44.91281128,-28.62222099,2.856505632,1905,6,14,11,54,25,500265,0,221,111.8729095,-44.1145401,70.65032196,-0.1285618246,0.7675774693,0.5030667186,25.13195419,-3.775336027,18.91259575,1905,6,24,10,41,49,740289
0,222,100.4459381,-26.81863594,18.614151,0.03047129884,0.6715900898,0.5914930105,-15.94344234,-20.59476471,21.42243385,1905,6,14,11,54,25,580272,0,222,111.8851242,-44.1321373,70.67906952,-0.149152562,0.8094975352,0.4363924265,14.65037918,-4.400852203,15.37131596,1905,6,24,10,41,49,780293
0,223,100.475708,-26.84511948,18.66556931,0.006246908102,0.6383636594,0.6053243876,18.40208626,-11.9417944,19.56583977,1905,6,14,11,54,25,620277,0,223,111.8770828,-44.12961197,70.69228363,-0.1583578289,0.7494756579,0.4499873817,3.163192034,-7.319926262,5.469488144,1905,6,24,10,41,49,824981
0,224,100.5050964,-26.86082649,18.73271179,0.002855493454,0.6071618199,0.6158456802,25.09327698,-8.049695015,17.94991684,1905,6,14,11,54,25,660290,0,224,111.8460693,-44.11472321,70.64742279,-0.1697432846,0.7592411041,0.4693749547,-26.54104805,-11.97654533,-1.578688502,1905,6,24,10,41,49,864994
0,225,100.4996567,-26.87122345,18.74007225,-0.01107353065,0.5566672087,0.5990588665,-6.158060551,-10.4475069,4.953767776,1905,6,14,11,54,25,700292,0,225,111.8152313,-44.09037018,70.61524963,-0.1741036773,0.7821065784,0.4538885355,-21.62901878,-10.5865097,-4.948060513,1905,6,24,10,41,49,904994
0,226,100.4814529,-26.8874073,18.67190742,-0.0380837284,0.5698863268,0.5862914324,-40.03945923,-14.27010441,1.240581989,1905,6,14,11,54,25,744074,0,226,111.7900467,-44.06292725,70.59920502,-0.1922719777,0.7584074736,0.4512877464,-13.50676632,-8.605709076,-5.635687351,1905,6,24,10,41,49,945035
0,227,100.4458084,-26.90358925,18.57604027,-0.07102889568,0.678378284,0.5280104876,-55.43306351,-15.48638535,-4.844916344,1905,6,14,11,54,25,784076,0,227,111.7878952,-44.03875732,70.59041595,-0.1743459255,0.6950510144,0.4624001384,-3.876094341,-2.941314697,-2.644510269,1905,6,24,10,41,49,988978
0,228,100.3932495,-26.90768242,18.55164719,-0.05431406945,0.7166064978,0.508977592,-29.09375763,-12.25455284,-12.4775753,1905,6,14,11,54,25,824083,0,228,111.8003006,-44.02377319,70.57270813,-0.1725291014,0.762575686,0.4732761085,-3.60535264,-0.1612438262,2.478310823,1905,6,24,10,41,50,30055
0,229,100.34552,-26.90211296,18.56949997,-0.06351933628,0.7347083688,0.4960919321,-10.60596085,-7.736937046,-12.03061771,1905,6,14,11,54,25,864086,0,229,111.8184738,-44.00358582,70.57675171,-0.1697432846,0.8474875689,0.4253982604,6.063997269,2.340820074,1.790683627,1905,6,24,10,41,50,40001
0,230,100.3274689,-26.89054489,18.55830765,-0.0718767494,0.7280392647,0.4966830313,-17.06508636,-1.933539033,-2.335078001,1905,6,14,11,54,25,904087,0,230,111.8267059,-43.97279739,70.58781433,-0.1841568053,0.7711502314,0.4548342526,6.644157887,0.9160336256,-3.675950527,1905,6,24,10,41,50,80006
0,231,100.3343048,-26.87367249,18.57257652,-0.05298172683,0.7437592745,0.5239911079,-1.826192141,3.209592104,5.675776005,1905,6,14,11,54,25,946984,0,231,111.8406372,-43.94496155,70.57115936,-0.180280894,0.8203348517,0.4542431831,-3.141223907,2.097563744,-1.853739262,1905,6,24,10,41,50,120015
0,232,100.3273773,-26.84947586,18.64181709,-0.03723587468,0.7163683176,0.5332120657,18.55679703,4.391122341,-0.1346718818,1905,6,14,11,54,25,986989,0,232,111.8500977,-43.91386795,70.56781769,-0.1940888017,0.8023520708,0.4641734064,1.151967406,1.333044291,-3.607187986,1905,6,24,10,41,50,160029
0,233,100.3194046,-26.82180023,18.67265129,-0.06351933628,0.7281583548,0.5647760034,2.544353485,5.259894848,-0.9942055941,1905,6,14,11,54,26,27973,0,233,111.8663025,-43.88446045,70.5577774,-0.1777373403,0.8446294069,0.4557799995,0.1076776832,2.966336012,-2.094408751,1905,6,24,10,41,50,200031
0,234,100.3080521,-26.79282951,18.69937325,-0.05467743427,0.7469747066,0.557919383,0.06900028884,5.607403755,-2.335078001,1905,6,14,11,54,26,40050,0,234,111.8806534,-43.85395813,70.56772614,-0.1636871994,0.8189057112,0.4644098282,7.765802383,2.514574528,-2.85079813,1905,6,24,10,41,50,240037
0,235,100.2960663,-26.76405525,18.72005463,-0.06412494183,0.7489992976,0.5622934103,-2.522385359,5.364147186,-2.5413661,1905,6,14,11,54,26,82276,0,235,111.8932648,-43.83214569,70.56452179,-0.17846407,0.7927057147,0.4814330637,2.234934568,0.846531868,0.03723486513,1905,6,24,10,41,50,282929
0,236,100.2828445,-26.73510361,18.76375961,-0.03699363023,0.7661483884,0.5709232688,6.721512794,5.537901878,-2.988323689,1905,6,14,11,54,26,122283,0,236,111.9046555,-43.80803299,70.57455444,-0.1598112881,0.8809521794,0.4687838554,6.798867702,0.9160336256,-0.4784853458,1905,6,24,10,41,50,322941
0,237,100.2720413,-26.70586777,18.8073101,-0.04632002115,0.756025672,0.5820356607,7.224318981,5.711656094,-2.197552681,1905,6,14,11,54,26,165102,0,237,111.9057999,-43.77492905,70.60755157,-0.1707122624,0.8423666954,0.4855706394,13.45137978,-0.7520089149,-5.119966984,1905,6,24,10,41,50,402965
0,238,100.2721252,-26.68257904,18.84893608,-0.03360221535,0.761980176,0.5940937996,8.423317909,4.738631248,2.443929434,1905,6,14,11,54,26,206026,0,238,111.9129562,-43.73761368,70.6480484,-0.1594479233,0.6917164922,0.5109872818,0.8425482512,-3.879588604,3.269081831,1905,6,24,10,41,50,445920
0,239,100.2593384,-26.65545273,18.90221596,-0.02560816333,0.7298256159,0.5849910975,10.8986721,4.669129848,-2.61012888,1905,6,14,11,54,26,249050,0,239,111.9118958,-43.73196793,70.62569427,-0.1645350456,0.8259320855,0.4750493467,-9.368284225,-5.026367664,5.056911945,1905,6,24,10,41,50,488920
0,240,100.2347107,-26.62716866,18.97059059,-0.02996855415,0.7666247487,0.6148999333,15.03715324,3.59185195,-6.942178726,1905,6,14,11,54,26,293131,0,240,111.9076691,-43.71708679,70.64205933,-0.1642927974,0.7642429471,0.4902993143,5.677223206,-4.748360634,0.8967685699,1905,6,24,10,41,50,528926
0,241,100.2234192,-26.60917282,19.02359962,-0.0309375301,0.7379238009,0.6242390871,11.20809078,0.9855354428,-0.8566801548,1905,6,14,11,54,26,333141,0,241,111.8997726,-43.71110916,70.65848541,-0.1289251894,0.5872735977,0.4861617088,5.406481266,-7.215673447,2.856505632,1905,6,24,10,41,50,571927
0,242,100.2353363,-26.60491943,19.02997398,-0.01797748171,0.7052928805,0.5984678268,-3.914771795,-1.620781064,9.182673454,1905,6,14,11,54,26,373148,0,242,111.870079,-43.70791626,70.60127258,-0.1288040727,0.5935854316,0.4902993143,-30.13804626,-13.54033566,1.859446287,1905,6,24,10,41,50,615018
0,243,100.2409439,-26.59590721,19.05268288,-0.02924182266,0.7058883309,0.58664608,1.693451047,-0.4740018249,6.294640541,1905,6,14,11,54,26,413153,0,243,111.8704224,-43.69287109,70.59116364,-0.1088189408,0.7891329527,0.3770475388,-4.765674591,-3.254072666,2.203259706,1905,6,24,10,41,50,655056
0,244,100.2466125,-26.58242798,19.11138344,-0.02754611522,0.6911210418,0.5754154921,16.73895836,1.263542533,5.710157394,1905,6,14,11,54,26,453154,0,244,111.8956604,-43.7036438,70.62017822,-0.08822821081,0.5279662609,0.4537703097,19.83315086,-0.5087527037,12.17385101,1905,6,24,10,41,50,695067
0,245,100.2726517,-26.58213615,19.14454842,-0.009377823211,0.6332427859,0.4782412052,9.66099453,-0.9952651262,14.71807098,1905,6,14,11,54,26,493156,0,245,111.9648666,-43.7694931,70.52889252,-0.06909094006,0.6594427824,0.4090843201,-17.33582878,4.286869526,38.47558212,1905,6,24,10,41,50,735075
0,246,100.3448181,-26.59664345,19.23206329,0.001644273987,0.6731382608,0.572814703,41.10572052,-1.516528368,32.94018555,1905,6,14,11,54,26,533163,0,246,112.1229858,-43.88193893,70.4042511,-0.1483047009,0.8111647964,0.4491598606,-13.77750778,5.676905632,42.49819946,1905,6,24,10,41,50,778009
0,247,100.4402008,-26.60637665,19.25564766,0.01739012823,0.706007421,0.4797780514,18.32473183,4.113115311,40.40093613,1905,6,14,11,54,26,574095,0,247,112.1836548,-43.8830719,70.35218048,-0.190939635,0.885358572,0.437692821,6.953577042,11.13279438,29.94900703,1905,6,24,10,41,50,818010
0,248,100.5971909,-26.62422752,19.19899178,0.01969144493,0.762575686,0.5481073856,-3.566675186,8.317973137,63.19577026,1905,6,14,11,54,26,615112,0,248,112.2252426,-43.83161926,70.27077484,-0.1989336759,0.786632061,0.4067199826,-4.804351807,11.0632925,13.9272995,1905,6,24,10,41,50,859212
0,249,100.8074875,-26.6560936,19.19375229,0.07201612741,0.7218465209,0.572814703,27.7620163,9.395249367,83.75582123,1905,6,14,11,54,26,655112,0,249,112.2448654,-43.77201462,70.18936157,-0.2023250908,0.875235796,0.4155862629,-21.82240677,12.93984032,-8.04238224,1905,6,24,10,41,50,899224
0,250,101.0144653,-26.68483734,19.24246788,0.01508881059,0.5810808539,0.600359261,50.5816803,8.630730629,82.07112885,1905,6,14,11,54,26,700009,0,250,112.2791061,-43.7219429,70.07696533,-0.1460033804,0.9054849148,0.2893305719,-28.16549873,8.213720322,-12.85577011,1905,6,24,10,41,50,939231
0,251,101.1875916,-26.69173622,19.29227066,-0.07478367537,0.4836643934,0.6597041488,46.24981308,11.44555187,66.87457275,1905,6,14,11,54,26,743012,0,251,112.2950668,-43.63853836,70.00460052,-0.1417641193,0.9734859467,0.3801211715,-37.83485031,11.48030281,-6.839034557,1905,6,24,10,41,50,980916
0,252,101.3025208,-26.67068481,19.29456902,-0.1836723089,0.4045879245,0.6130084991,16.77763557,14.39937782,42.25753021,1905,6,14,11,54,26,783012,0,252,112.313179,-43.52507019,69.92333984,-0.2619170845,0.9809886813,0.3491483331,-26.34766197,10.68103218,-21.62301445,1905,6,24,10,41,51,20921
0,253,101.3784256,-26.63935471,19.24161148,-0.1868214905,0.5442817211,0.6567487121,-14.58973312,14.36462688,27.40478897,1905,6,14,11,54,26,875308,0,253,112.3614731,-43.35285568,69.84296417,-0.2063221186,0.9313277006,0.3554138243,-29.44185448,15.85891438,-32.59066391,1905,6,24,10,41,51,40013
0,254,101.4464798,-26.5613308,19.28298569,-0.1946944147,0.6284791231,0.6705801487,13.52873516,8.491726875,8.288758278,1905,6,14,11,54,26,958020,0,254,112.3997421,-43.11394119,69.77986908,-0.168410942,0.9832513928,0.3950164914,-20.58473015,32.1570816,-51.63793182,1905,6,24,10,41,51,80023
0,255,101.453186,-26.40345955,19.31978035,-0.2892906368,0.5130798817,0.6348786354,4.787642479,33.54711533,-10.72412682,1905,6,14,11,54,26,999993,0,255,112.4756699,-42.79713821,69.7035141,-0.201961726,0.9377586246,0.3435921371,-16.33021545,38.62074661,-77.69898987,1905,6,24,10,41,51,120025
0,256,101.423645,-26.25745964,19.43303108,-0.2575566769,0.4902144074,0.5634756088,35.57485199,46.12693787,-25.5424881,1905,6,14,11,54,27,42276,0,256,112.5396729,-42.4486351,69.61760712,-0.04159626365,0.8684476018,0.3206580579,-11.53421879,60.30529785,-102.7973785,1905,6,24,10,41,51,206976
0,257,101.3389206,-25.80262756,19.47414017,-0.1067598686,0.3624296784,0.565248847,-38.2989769,84.00540161,-41.73610306,1905,6,14,11,54,27,85090,0,257,112.5778275,-42.06012344,69.59592438,0.06135739386,1.013738751,0.3017433584,-0.8592572212,60.65280914,-132.3309479,1905,6,24,10,41,51,248080
0,258,101.1998978,-25.23681831,19.64603615,0.04597490653,0.6116873026,0.8252078295,-6.158060551,89.25278473,-51.39726257,1905,6,14,11,54,27,209016,0,258,112.6342239,-41.7349205,69.60515594,0.1593450457,0.925373137,0.3516308963,17.66721535,56.44794846,-106.5793228,1905,6,24,10,41,51,291012
0,259,101.0837784,-24.68106651,19.63990974,0.2098529041,0.642770052,0.8654016256,-25.88353348,94.60442352,-53.35699844,1905,6,14,11,54,27,252025,0,259,112.6886063,-41.40969467,69.57046509,0.2946382761,0.8498694301,0.3130921721,-0.6271928549,56.06568909,-106.3386536,1905,6,24,10,41,51,331037
0,260,100.997551,-24.40615273,19.72045326,0.3142600358,0.5620263219,0.7964811325,8.887447357,95.54269409,-64.324646,1905,6,14,11,54,27,294516,0,260,112.7302246,-41.09341049,69.55633545,0.3317016065,0.883333981,0.3417006731,5.406481266,51.72182846,-104.0007248,1905,6,24,10,41,51,415026
0,261,100.9218369,-24.14542007,19.86410141,0.3728830516,0.5471399426,0.8097214103,37.16062546,93.07538605,-59.40811539,1905,6,14,11,54,27,334524,0,261,112.779129,-40.55599213,69.64422607,0.4671159387,0.7570974827,0.3402820826,22.73395538,38.69024658,-87.70396423,1905,6,24,10,41,51,455039
0,262,100.8626022,-23.88568497,20.02859116,0.4352608621,0.5058153272,0.7334715128,49.46003723,97.80150604,-55.11044693,1905,6,14,11,54,27,374534,0,262,112.8043671,-40.321064,69.65361786,0.5320372581,0.7769857049,0.3180572987,14.65037918,39.35051346,-78.55852509,1905,6,24,10,41,51,498075
0,263,100.8070602,-23.64468765,20.10745049,0.5330062509,0.4597270787,0.6600587964,16.31350708,93.94416046,-53.32261658,1905,6,14,11,54,27,416997,0,263,112.8214722,-40.10684586,69.64631653,0.584846437,0.6650400758,0.2893305719,7.37902832,37.33496094,-78.18032837,1905,6,24,10,41,51,538084
0,264,100.7407913,-23.39823341,20.14274788,0.5418481231,0.3961324692,0.6331053376,-2.483707905,95.64694977,-58.85801315,1905,6,14,11,54,27,462011,0,264,112.8209152,-39.89957809,69.63288116,0.6209408045,0.6801646352,0.2379062176,-2.328998327,33.30385971,-78.35224152,1905,6,24,10,41,51,579282
0,265,100.6625519,-23.13466454,20.22702599,0.7311617732,0.465205282,0.5703321695,16.85499001,101.415596,-66.31876373,1905,6,14,11,54,27,505011,0,265,112.8006287,-39.70379639,69.67073059,0.717474997,0.5997781754,0.2165089548,13.1419611,26.87494659,-79.76187134,1905,6,24,10,41,51,619316
0,266,100.6018677,-22.88812065,20.37331581,0.7570818663,0.4320979714,0.5509445667,46.32716751,97.31499481,-58.06724167,1905,6,14,11,54,27,548004,0,266,112.8044128,-39.52103043,69.68683624,0.7378234863,0.59120363,0.2336504012,11.32412338,32.08757782,-72.47303009,1905,6,24,10,41,51,660064
0,267,100.5318604,-22.63948631,20.41215706,0.7960830927,0.2818050385,0.4447858334,1.693451047,97.55825043,-62.84625244,1905,6,14,11,54,27,589024,0,267,112.830864,-39.35870361,69.6646347,0.790148139,0.5310626626,0.214499265,1.538741469,36.15343094,-63.53387833,1905,6,24,10,41,51,700069
0,268,100.4636612,-22.41743279,20.29994202,0.9513614774,0.2899032235,0.4590900838,-60.73186874,87.54999542,-58.27353287,1905,6,14,11,54,27,629027,0,268,112.8190765,-39.20067978,69.63994598,0.8304817677,0.3798169792,0.152671814,-9.832413673,24.68564034,-67.65963745,1905,6,24,10,41,51,742064
0,269,100.2802811,-22.1279583,20.25462723,1.02827394,0.2627504766,0.4512877464,-17.06508636,43.03410721,-50.29705811,1905,6,14,11,54,27,714019,0,269,112.7782211,-39.06808853,69.66293335,0.9196274877,0.3437323868,0.1153152585,1.422709227,12.87033844,-61.50537872,1905,6,24,10,41,51,784256
0,270,100.2091904,-22.05125999,20.18560791,0.9764336944,0.2651322782,0.35009408,-42.70820236,30.48903847,-38.0229187,1905,6,14,11,54,27,754029,0,270,112.7315979,-38.98824692,69.68771362,0.9585076571,0.2316676825,0.2303403318,2.892450094,2.827332497,-43.52393341,1905,6,24,10,41,51,824259
0,271,100.1262131,-21.96425819,20.15554047,0.9902415872,0.2436958849,0.3362627029,-28.12682152,33.0258522,-43.83336639,1905,6,14,11,54,27,794034,0,271,112.7099457,-38.95927811,69.62448883,0.9579020739,0.2960959673,0.2885030508,-25.38072777,2.688328981,-21.45110703,1905,6,24,10,41,51,868987
0,272,100.0518494,-21.92028427,20.14082909,0.9936330318,0.1698594242,0.2772724628,-19.81118202,17.49220657,-34.75669098,1905,6,14,11,54,27,834042,0,272,112.6466904,-38.9635582,69.58529663,0.9026704431,0.4043497443,0.1857725531,-28.01078987,-12.91481972,-11.85871124,1905,6,24,10,41,51,909020
0,273,100.0004578,-21.89230919,20.14560127,0.9517248273,0.177481249,0.2718344629,-8.130607605,14.26037407,-24.06409073,1905,6,14,11,54,27,875218,0,273,112.6008301,-38.95157242,69.6211853,0.9273793101,0.3776733577,0.1790341884,6.450770855,-5.547630787,-16.39704895,1905,6,24,10,41,51,953979
0,274,99.96953583,-21.86217308,20.14081192,0.9411872029,0.1920103729,0.2751445472,-9.020188332,17.80496407,-16.77524376,1905,6,14,11,54,27,918091,0,274,112.5457153,-38.94393921,69.6635437,0.9047294855,0.2995496094,0.1974760294,7.37902832,-9.196475029,-16.46581268,1905,6,24,10,41,51,994052
0,275,99.94615173,-21.83743477,20.09180641,0.9339199066,0.1368712038,0.1882551014,-26.03824234,16.79718781,-13.44025326,1905,6,14,11,54,27,958100,0,275,112.4974823,-38.95388031,69.66487122,0.8910427094,0.3006214201,0.1637842059,-7.937220573,-9.439730644,-8.970678329,1905,6,24,10,41,52,41990
0,276,99.92584229,-21.83450127,20.06331444,0.9737690091,0.2224976718,0.134111762,-17.68392563,8.491726875,-8.833152771,1905,6,14,11,54,27,998104,0,276,112.4182663,-38.95718002,69.62037659,0.9129657745,0.3209860027,0.09285404533,-18.84424591,-6.624908447,-12.58071995,1905,6,24,10,41,52,82739
0,277,99.89076233,-21.85237694,20.05239487,0.9293172956,0.1915339977,0.2186368555,-12.2690897,-1.551279306,-11.34299088,1905,6,14,11,54,28,38117,0,277,112.370697,-38.9603157,69.63950348,0.8668183684,0.3314660192,0.1654392481,-0.6658702493,-8.223449707,-11.06794071,1905,6,24,10,41,52,122740
0,278,99.87224579,-21.8680954,19.99287415,0.9300439954,0.167953968,0.1997221559,-29.78994942,1.541549563,-5.77321291,1905,6,14,11,54,28,41898,0,278,112.3470154,-38.9756279,69.60366058,0.884986639,0.2739450336,0.1702861339,-16.44624901,-3.115069151,-4.501102924,1905,6,24,10,41,52,162990
0,279,99.87566376,-21.89699554,19.90735245,0.9516037107,0.2133276612,0.165557459,-37.64146042,-0.8215106726,4.231759548,1905,6,14,11,54,28,83892,0,279,112.3250351,-38.99752808,69.5537796,0.9003691077,0.2958577871,0.1407319009,-22.28653526,-3.288823605,-1.544307113,1905,6,24,10,41,52,202999
0,280,99.87348938,-21.93292618,19.8844986,0.9617779255,0.2077303827,0.195939213,-12.23041153,-4.296599388,3.200319052,1905,6,14,11,54,28,124146,0,280,112.3155594,-39.02644348,69.54823303,0.9093321562,0.308719635,0.1514896452,-1.168676376,-0.6130053401,2.581454754,1905,6,24,10,41,52,243009
0,281,99.88739014,-21.9648037,19.85125351,0.9547528625,0.1636666954,0.1839993,-13.73883057,-0.5087527037,8.288758278,1905,6,14,11,54,28,165960,0,281,112.3227997,-39.06102753,69.51907349,0.8979466558,0.2511986494,0.1771427244,-5.848641396,3.070588589,5.813301563,1905,6,24,10,41,52,283009
0,282,99.92190552,-21.99739838,19.79004097,0.9474855661,0.1535439491,0.1800981462,-22.20918083,1.923809409,15.88703632,1905,6,14,11,54,28,208885,0,282,112.3334732,-39.1017189,69.46598816,0.8972199559,0.2854968607,0.171113655,-14.74444294,3.383346558,8.873241425,1905,6,24,10,41,52,323013
0,283,99.95462799,-22.03095055,19.71477699,0.9655327201,0.1271057427,0.1448694915,-28.20417786,1.333044291,15.16502857,1905,6,14,11,54,28,253873,0,283,112.3147354,-39.13851166,69.45169067,0.9052140117,0.3290841877,0.1845903844,-6.660866737,-4.713609695,4.334903717,1905,6,24,10,41,52,363020
0,284,99.99732208,-22.07815361,19.63575172,0.9712254405,0.1754567027,0.1998403668,-28.51359558,-2.83706212,20.90671349,1905,6,14,11,54,28,293873,0,284,112.3164902,-39.16577911,69.41344452,0.9065463543,0.290975064,0.2074062526,-10.52860641,2.340820074,2.650217533,1905,6,24,10,41,52,403021
0,285,100.0329437,-22.10617638,19.60494041,0.9336776733,0.1639048755,0.1825806946,-9.522994041,3.765606403,15.64636707,1905,6,14,11,54,28,333882,0,285,112.3374252,-39.19236374,69.38137817,0.8927384615,0.3195569217,0.2420438081,-2.599740267,7.796709538,4.644335747,1905,6,24,10,41,52,446658
0,286,100.060997,-22.12961388,19.62023735,0.9170839787,0.1846267134,0.2087066323,8.345963478,4.530126095,12.31137657,1905,6,14,11,54,28,373899,0,286,112.3619232,-39.21491241,69.3712616,0.8847444057,0.3268214762,0.2180457711,6.721512794,9.673256874,3.75042057,1905,6,24,10,41,52,486665
0,287,100.0813217,-22.14308357,19.64763069,0.9405816197,0.1236520931,0.2206465453,12.75518703,7.588204384,7.876182556,1905,6,14,11,54,28,413910,0,287,112.4076843,-39.24707794,69.35860443,0.925562501,0.3095532656,0.2291581631,2.776417971,10.05551624,-0.1346718818,1905,6,24,10,41,52,566681
0,288,100.0991898,-22.14439964,19.68247032,0.9351311326,0.148423031,0.2114256322,15.19186306,12.00156593,5.469488144,1905,6,14,11,54,28,454953,0,288,112.4137497,-39.25967407,69.35100555,0.903881669,0.3205096424,0.2214740664,3.047159672,5.642154694,-2.16317153,1905,6,24,10,41,52,610683
0,289,100.1061172,-22.14578819,19.72497749,0.9665017128,0.1750994325,0.2315225005,16.54557228,10.50727844,1.550014138,1905,6,14,11,54,28,494958,0,289,112.4237823,-39.27807236,69.38111115,0.8762658238,0.3336096406,0.2245476991,19.33034515,5.989663601,0.6560991406,1905,6,24,10,41,52,650725
0,290,100.1127396,-22.15306282,19.77511215,0.9368268251,0.2042767406,0.2406252027,19.36902237,8.074716568,2.409548044,1905,6,14,11,54,28,534963,0,290,112.4414063,-39.2975235,69.42701721,0.8972199559,0.3554033041,0.1818713993,26.79508209,8.561228752,2.409548044,1905,6,24,10,41,52,690737
0,291,100.123497,-22.15589333,19.84678078,0.9405816197,0.2012994736,0.2091795057,28.9610157,10.36827469,3.303462982,1905,6,14,11,54,28,574967,0,291,112.4513855,-39.31855774,69.45545959,0.9335565567,0.3118159771,0.1069218591,16.73895836,6.476175785,2.065734386,1905,6,24,10,41,52,730740
0,292,100.1281662,-22.15960693,19.90577888,0.9776449203,0.2089212984,0.1731233448,22.65660095,9.221495628,1.240581989,1905,6,14,11,54,28,614979,0,292,112.4294205,-39.33346176,69.45064545,0.8281804323,0.2690623105,0.08848001808,-4.765674591,-1.898788214,-3.744713306,1905,6,24,10,41,52,770743
0,293,100.13517,-22.17985153,19.89146996,0.9392492771,0.2020140141,0.188609764,-7.550446987,3.03583765,4.36928463,1905,6,14,11,54,28,654987,0,293,112.418869,-39.35913467,69.42098999,0.8281804323,0.3057423532,0.08280560374,-12.11437988,-0.02224028297,1.962590337,1905,6,24,10,41,52,815667
0,294,100.14151,-22.21282196,19.86027527,0.8534949422,0.260011375,0.1313927621,-15.36328125,-2.281047821,6.294640541,1905,6,14,11,54,28,694995,0,294,112.4117737,-39.37739944,69.42037201,0.8345999122,0.4061361253,0.09214474261,0.2237098813,2.16706562,0.7936245203,1905,6,24,10,41,52,895672
0,295,100.1446762,-22.23586082,19.85876656,0.8533738256,0.2653704882,0.151726082,-3.489320278,1.194040775,3.81918335,1905,6,14,11,54,28,736962,0,295,112.4084702,-39.40024185,69.45414734,0.8887414336,0.3275360167,0.1089315489,9.312898636,5.537901878,-2.61012888,1905,6,24,10,41,52,935677
0,296,100.1411285,-22.24150467,19.89237595,0.888620317,0.2635841072,0.1420322955,10.16380119,7.1711936,-1.234874964,1905,6,14,11,54,28,778131,0,296,112.4154663,-39.40959167,69.47265625,0.8794150352,0.3275360167,0.1066854224,12.05899334,7.344947815,-2.231934071,1905,6,24,10,41,52,975690
0,297,100.1385117,-22.2424202,19.92482948,0.9186585546,0.255366832,0.1442784071,9.931736946,9.18674469,-1.578688502,1905,6,14,11,54,28,820886,0,297,112.4263,-39.41838837,69.50852966,0.8478022218,0.3477814794,0.08682498336,19.60108566,8.665481567,-1.544307113,1905,6,24,10,41,53,15692
0,298,100.143959,-22.24324608,19.95083427,0.9221710563,0.287640512,0.1400226057,8.268609047,10.19452,1.515632868,1905,6,14,11,54,28,865892,0,298,112.4264221,-39.41903687,69.5639267,0.9113911986,0.4114952087,0.03209054843,23.81692314,7.032189846,-4.810534954,1905,6,24,10,41,53,40005
0,299,100.1555939,-22.23649979,20.08404732,0.9284694195,0.2645368278,0.1247726232,23.35279274,10.26402187,4.541191578,1905,6,14,11,54,28,909874,0,299,112.4095688,-39.41144943,69.63020325,0.9976300597,0.3642160594,-0.005502432119,23.62353516,3.279093981,-10.48345757,1905,6,24,10,41,53,124963
0,300,100.1293488,-22.20814896,20.14135361,1.006350875,0.26810956,0.09947419167,16.54557228,17.52695656,-14.33416843,1905,6,14,11,54,28,989913,0,300,112.3363953,-39.41086197,69.66531372,0.9542683959,0.2383367866,0.05798005313,-7.20235014,-4.470353603,-7.801712513,1905,6,24,10,41,53,166946
0,301,100.0640717,-22.20220375,20.14034271,0.9873346686,0.2827577591,0.1105865836,-16.36889267,2.549325228,-10.27716923,1905,6,14,11,54,29,40957,0,301,112.3094177,-39.43651199,69.63504028,0.8981889486,0.260011375,0.07677654177,-16.29153824,-4.713609695,-0.2034345716,1905,6,24,10,41,53,209974
0,302,100.0498581,-22.22996521,20.11376762,0.9416717291,0.2856159508,0.1095226333,-16.71698952,-2.941314697,-1.784976602,1905,6,14,11,54,29,80966,0,302,112.2918854,-39.47369766,69.61435699,0.8560385108,0.302169621,0.0640091151,-10.3738966,-3.42782712,5.813301563,1905,6,24,10,41,53,249982
0,303,100.0346451,-22.30413246,20.10219383,0.9235033989,0.2300004214,0.09793737531,-5.616577148,-5.339125633,3.028412342,1905,6,14,11,54,29,167941,0,303,112.2672501,-39.51287842,69.59716034,0.9056984782,0.3446851373,0.03847426176,-11.34083176,-5.651883602,6.260259151,1905,6,24,10,41,53,294965
0,304,100.0142899,-22.34281921,20.05252647,1.007077575,0.2398849726,0.08706141263,-26.8891449,-7.875940323,-2.71327281,1905,6,14,11,54,29,207947,0,304,112.2223434,-39.54341888,69.56458282,0.9874557853,0.3106250763,0.04852269962,-22.51860046,-10.51700878,-0.06590917706,1905,6,24,10,41,53,334975
0,305,100.0003815,-22.38273621,19.96388245,0.9512403607,0.2365504205,0.09781915694,-42.16671753,-7.528431416,-0.1690532267,1905,6,14,11,54,29,247955,0,305,112.1833344,-39.57098389,69.49169922,0.9035183191,0.2563195527,0.1154334769,-36.01700974,-8.814214706,-1.200493693,1905,6,24,10,41,53,375017
0,306,99.99947357,-22.42673302,19.89808273,0.8594298959,0.2426240742,0.1458152384,-30.71820831,-7.493680477,5.228818417,1905,6,14,11,54,29,291049,0,306,112.1582718,-39.59883881,69.40045166,0.8121923208,0.3172941804,0.1498346031,-39.30458832,-4.887364388,1.103056669,1905,6,24,10,41,53,418931
0,307,99.99581909,-22.45911217,19.89225578,0.8584609032,0.2321440578,0.1823442578,-5.925996304,-3.254072666,2.512691975,1905,6,14,11,54,29,331968,0,307,112.1389847,-39.62347031,69.39476013,0.8249101639,0.3832706213,0.1276098341,-4.146836281,-2.420051575,1.550014138,1905,6,24,10,41,53,458939
0,308,99.97877502,-22.47442818,19.92918205,0.9381591678,0.1926058233,0.1368307471,10.12512398,1.819556713,-5.051204681,1905,6,14,11,54,29,371980,0,308,112.115242,-39.64532089,69.40969849,0.9328297973,0.3509969413,0.09923776239,2.466999054,-3.323574543,-0.8222988248,1905,6,24,10,41,53,498953
0,309,99.95129395,-22.48579788,19.96483994,1.007319808,0.2049912959,0.1456970125,7.959189415,1.993311167,-9.348873138,1905,6,14,11,54,29,411987,0,309,112.079895,-39.65949249,69.41663361,0.9783716798,0.3233678341,0.1019567475,-3.60535264,-5.686634541,-5.395018101,1905,6,24,10,41,53,538959
0,310,99.9224472,-22.50832939,19.94831657,0.9855178595,0.1991558224,0.1559818834,-13.9322176,-2.55905509,-8.386195183,1905,6,14,11,54,29,452002,0,310,112.0456772,-39.67812347,69.39749908,0.9391281605,0.2548904717,0.1440419853,-12.92660522,-6.416403294,-4.397958755,1905,6,24,10,41,53,578969
0,311,99.90719604,-22.53931236,19.91938019,0.9585076571,0.211422205,0.1813985258,-17.06508636,-4.122844696,-2.16317153,1905,6,14,11,54,29,492010,0,311,112.0255737,-39.70693588,69.35570526,0.9002479911,0.2751359344,0.1804527938,-17.79995728,-3.983841419,1.034294009,1905,6,24,10,41,53,618969
0,312,99.90397644,-22.57006836,19.92285347,0.9500291348,0.1966549158,0.1831717789,-1.516772985,-2.420051575,2.134497166,1905,6,14,11,54,29,532018,0,312,112.0141525,-39.74196625,69.34323883,0.9017014503,0.3276551068,0.1770244986,-4.108158588,-2.246297121,4.747479916,1905,6,24,10,41,53,658979
0,313,99.89710236,-22.59851074,19.96171761,0.9546317458,0.1858176291,0.1760787666,12.79386425,-1.968289971,0.4154296815,1905,6,14,11,54,29,572026,0,313,111.9998779,-39.77880859,69.35058594,0.9079998136,0.3215814531,0.1401408166,2.50567627,-3.080318213,5.228818417,1905,6,24,10,41,53,698983
0,314,99.88353729,-22.62607574,19.99628258,0.96589607,0.1427066624,0.1695768386,10.27983379,-2.420051575,-2.335078001,1905,6,14,11,54,29,615005,0,314,111.9843445,-39.81293869,69.36017609,0.9221710563,0.2985968888,0.1460516602,3.240546703,-3.149820089,3.78480196,1905,6,24,10,41,53,738990
0,315,99.87252045,-22.65829468,20.01016998,0.9467588067,0.1454457641,0.1594101787,1.925515413,-3.914339542,-0.7191547751,1905,6,14,11,54,29,655011,0,315,111.9620895,-39.84914017,69.35534668,0.8984311819,0.2932377756,0.1614198685,-3.914771795,-5.478129387,3.81918335,1905,6,24,10,41,53,778990
0,316,99.88452148,-22.70566559,20.02202606,0.9484545588,0.2416713387,0.1752512455,4.130126953,-7.041919231,10.11096954,1905,6,14,11,54,29,695024,0,316,111.9550858,-39.88191605,69.35497284,0.8905582428,0.2964532375,0.19144696,2.234934568,-0.8910124898,3.95670867,1905,6,24,10,41,53,818996
0,317,99.89715576,-22.73840141,20.07686424,0.9445786476,0.2118985802,0.1633113325,22.11511612,-1.16901958,8.151232719,1905,6,14,11,54,29,739961,0,317,111.9499664,-39.91350937,69.37467957,0.9079998136,0.3368251026,0.1408501267,9.77702713,0.3252685666,4.438047409,1905,6,24,10,41,53,859026
0,318,99.93051147,-22.78264427,20.1026535,0.9054562449,0.1996321976,0.1603559107,1.500064015,3.835108042,6.94788599,1905,6,14,11,54,29,826050,0,318,111.9449005,-39.93858337,69.39872742,0.9105433822,0.2694195807,0.1349392831,11.67221928,1.124539018,1.343726039,1905,6,24,10,41,53,899028
0,319,99.92842102,-22.79152679,20.10138321,0.9185374379,0.2141613066,0.151726082,-3.527997732,6.232919693,-0.5472480655,1905,6,14,11,54,29,867032,0,319,111.9400177,-39.96579361,69.39176941,0.8703308702,0.2871641517,0.1283191293,-0.8979346156,0.9160336256,2.375166655,1905,6,24,10,41,53,939028
0,320,99.91639709,-22.77467155,20.23895454,0.9425195456,0.287640512,0.1791523993,52.28348541,14.81638813,-7.561042786,1905,6,14,11,54,29,907038,0,320,111.9042053,-40.01044083,69.38285065,0.8553117514,0.3337287307,0.117561385,-2.290320873,-0.6825071573,1.790683627,1905,6,24,10,41,53,979040
0,321,99.90161896,-22.75751495,20.40787506,0.9468799233,0.1964167356,0.1669760644,65.62718964,14.78163719,-8.970678329,1905,6,14,11,54,29,947049,0,321,111.8989105,-40.02936554,69.40405273,0.8761447072,0.3801742494,0.1706407815,-4.262868404,-3.39307642,-2.231934071,1905,6,24,10,41,54,19049
0,322,99.87400818,-22.74218559,20.4786644,0.9702565074,0.1429448426,0.183053568,23.12072945,12.45332813,-13.61215973,1905,6,14,11,54,29,991934,0,322,111.9020615,-40.0478096,69.44025421,0.8894681334,0.3120541573,0.1474702656,10.74396229,1.958560228,0.03723486513,1905,6,24,10,41,54,43984
0,323,99.85313416,-22.74094963,20.4971981,0.9906049967,0.1079320833,0.1407319009,2.621708393,7.900962353,-9.176966667,1905,6,14,11,54,30,36955,0,323,111.8965454,-40.06649399,69.45163727,0.9379169345,0.3057423532,0.1448694915,18.71150589,4.391122341,0.03723486513,1905,6,24,10,41,54,123991
0,324,99.84222412,-22.76034546,20.51864243,0.9645637274,0.1734321564,0.1955845505,5.058384418,1.055037141,-2.335078001,1905,6,14,11,54,30,41258,0,324,111.8808746,-40.08236313,69.45227051,0.9101799726,0.3249160051,0.1466427445,-0.4338058829,-0.5435035825,-2.7476542,1905,6,24,10,41,54,163998
0,325,99.83551025,-22.78447723,20.52110291,0.9560852051,0.1567594111,0.1724140346,-2.135611296,-0.1959947199,-0.2034345716,1905,6,14,11,54,30,81270,0,325,111.8730011,-40.10722733,69.47050476,0.8984311819,0.3164605498,0.1595283896,8.848769188,0.255766809,1.240581989,1905,6,24,10,41,54,204034
1002,326,99.83214569,-22.81368065,20.52667427,0.9503924847,0.1681921482,0.167448923,-0.3564510942,-1.759784579,1.721920967,1905,6,14,11,54,30,126005,1002,326,111.8593903,-40.13596725,69.48161316,0.9065463543,0.3040750623,0.1427415907,4.284836292,-1.829286456,2.100115776,1905,6,24,10,41,54,245888
0,327,99.82126617,-22.83426666,20.56087685,0.9451842308,0.1628330499,0.1659121066,10.35718822,0.6032756567,-2.197552681,1905,6,14,11,54,30,206020,0,327,111.8420868,-40.16479492,69.50126648,0.8951608539,0.3324187398,0.1347028464,6.566802979,-2.767560244,2.134497166,1905,6,24,10,41,54,285890
0,328,99.80401611,-22.8843174,20.58170891,0.9546317458,0.1710503399,0.1597648263,-2.406352997,-0.9605142474,-0.1346718818,1905,6,14,11,54,30,246027,0,328,111.8275299,-40.19221115,69.52335358,0.898067832,0.3062187135,0.1295012981,8.268609047,-1.794535518,1.653158188,1905,6,24,10,41,54,365910
0,329,99.79888916,-22.91251183,20.58188057,0.9574175477,0.1569975913,0.1464063227,-2.870481968,-1.586030245,0.9311499,1905,6,14,11,54,30,326994,0,329,111.8037186,-40.24980927,69.53536987,0.9033971429,0.3065759838,0.1362396628,1.074612617,-0.7867597938,3.269081831,1905,6,24,10,41,54,405910
0,330,99.79232025,-22.97106743,20.59747505,0.9468799233,0.1562830508,0.1610652208,2.15757966,-0.1612438262,1.550014138,1905,6,14,11,54,30,369074,0,330,111.7926407,-40.27873611,69.53579712,0.8966143131,0.3040750623,0.1384857893,0.5331290364,-1.16901958,2.375166655,1905,6,24,10,41,54,445919
0,331,99.79149628,-22.98672485,20.61160851,0.9551162124,0.1505666822,0.154445067,3.704675436,3.904609919,0.6560991406,1905,6,14,11,54,30,410245,0,331,111.7830505,-40.30434418,69.53220367,0.8931018114,0.3288460076,0.1482977867,-0.5498380661,-0.2307455987,1.618776917,1905,6,24,10,41,54,488986
0,332,99.78677368,-23.004879,20.62545204,0.957659781,0.1472321302,0.1734779924,3.047159672,2.410321712,-0.4784853458,1905,6,14,11,54,30,453999,0,332,111.764183,-40.34786606,69.54795074,0.9048506618,0.3115777969,0.1378947049,3.898062468,0.9855354428,0.9655312896,1905,6,24,10,41,54,529877
0,333,99.78472137,-23.02502823,20.63387871,0.9598399997,0.1492566764,0.1754876822,1.19064486,1.993311167,0.8623872399,1905,6,14,11,54,30,494012,0,333,111.7631989,-40.39301682,69.54811859,0.9037605524,0.2968105078,0.1506621242,3.317901611,-0.6130053401,9.457724571,1905,6,24,10,41,54,649899
0,334,99.78240204,-23.04859161,20.63694382,0.9505136013,0.1541394144,0.1576369256,-1.129999042,0.6032756567,1.274963379,1905,6,14,11,54,30,534015,0,334,111.73983,-40.44728088,69.551651,0.898067832,0.3211050928,0.1420322955,0.5718064308,-2.037791729,1.309344769,1905,6,24,10,41,54,690888
0,335,99.77605438,-23.07207108,20.64527893,0.9465165734,0.1591412276,0.1688675284,0.3784194589,0.08201237768,-0.1346718818,1905,6,14,11,54,30,574020,0,335,111.7224121,-40.46985245,69.55732727,0.892375052,0.33277601,0.1485342234,1.306676984,-1.898788214,0.002853517653,1905,6,24,10,41,54,730892
0,336,99.77011108,-23.08795166,20.6559639,0.9451842308,0.1590221375,0.1689857543,1.422709227,3.105339527,-1.131730914,1905,6,14,11,54,30,614033,0,336,111.7099533,-40.4900589,69.56383514,0.8952819705,0.3176514506,0.1475884914,2.815095425,-0.300247401,-0.7879174948,1905,6,24,10,41,54,774964
0,337,99.76420593,-23.10181236,20.66658592,0.9517248273,0.1553303152,0.1585826576,1.345354438,3.904609919,-1.406781793,1905,6,14,11,54,30,659013,0,337,111.6926727,-40.51050186,69.56975555,0.8990367651,0.3056232631,0.1445148438,1.229322195,-1.794535518,-1.441163063,1905,6,24,10,41,54,814964
0,338,99.75801849,-23.12201691,20.67205048,0.9486967921,0.1645003259,0.1643752903,-0.8979346156,1.367795229,-0.4784853458,1905,6,14,11,54,30,699014,0,338,111.6766357,-40.53265762,69.57008362,0.8933440447,0.3196760118,0.1401408166,-0.7819024324,-1.586030245,-0.409722656,1905,6,24,10,41,54,855898
0,339,99.75306702,-23.14347076,20.67429352,0.944457531,0.1608085036,0.1726504713,-1.980901718,1.055037141,0.03723486513,1905,6,14,11,54,30,743981,0,339,111.6620026,-40.55369949,69.57376862,0.8940708041,0.3290841877,0.1467609704,1.035935283,-1.030016065,-0.6160107255,1905,6,24,10,41,54,897886
0,340,99.74874878,-23.16334343,20.68001556,0.9551162124,0.1661676019,0.1735962033,-0.4338058829,1.750054955,0.03723486513,1905,6,14,11,54,30,786982,0,340,111.6490707,-40.5743866,69.57483673,0.8986734152,0.3244396448,0.142505154,0.4170968533,-0.439250946,-0.4784853458,1905,6,24,10,41,54,937898
0,341,99.74508667,-23.18569565,20.68193436,0.9643214941,0.1618803293,0.179388836,-1.826192141,0.8812827468,0.6217178106,1905,6,14,11,54,30,831993,0,341,111.6377182,-40.59948349,69.57424164,0.9055773616,0.2980014384,0.1497163922,0.4557742476,-0.6477562785,1.103056669,1905,6,24,10,41,54,977909
0,342,99.7454834,-23.21875381,20.6654129,0.9572964311,0.1552112252,0.1724140346,-8.865478516,-2.732809544,3.681657791,1905,6,14,11,54,30,871999,0,342,111.6258163,-40.62905121,69.56773376,0.9032760262,0.3169369102,0.1549179405,-2.019579172,-1.412275791,2.925268173,1905,6,24,10,41,55,17909
0,343,99.74907684,-23.25723839,20.64608383,0.9820052981,0.1634285152,0.1981853247,-9.522994041,-4.435603142,5.503869534,1905,6,14,11,54,30,915025,0,343,111.6152954,-40.66347122,69.56588745,0.9242301583,0.2935950458,0.1592919677,0.1463550776,-1.933539033,4.334903717,1905,6,24,10,41,55,40006
0,344,99.75839233,-23.30035782,20.62598228,0.976554811,0.1597366929,0.1661485434,-8.904155731,-5.478129387,8.288758278,1905,6,14,11,54,30,955031,0,344,111.6084976,-40.70131683,69.55796051,0.9220499396,0.3256305456,0.1834082156,-0.9752894044,-1.412275791,6.225877762,1905,6,24,10,41,55,122986
0,345,99.77182007,-23.34148788,20.61002159,0.9667439461,0.2022521943,0.234714359,-6.738221645,-4.227097511,9.629631042,1905,6,14,11,54,30,999993,0,345,111.6325836,-40.79124069,69.60281372,0.9374324083,0.3272978365,0.1864818484,26.44698524,4.495375156,14.09920597,1905,6,24,10,41,55,202999
0,346,99.79946136,-23.38610268,20.64381027,0.9993257523,0.2375031561,0.1876640171,16.08144379,-3.740585089,15.44007874,1905,6,14,11,54,31,40005,0,346,111.727951,-40.92734528,69.69355774,0.9403393865,0.3542124033,0.1837628633,36.61914063,11.44555187,26.785923,1905,6,24,10,41,55,243006
0,347,99.84753418,-23.44362831,20.69356155,1.011680245,0.2790659368,0.2085884213,25.82814789,-6.103645325,24.7574234,1905,6,14,11,54,31,40011,0,347,111.7989655,-41.01827621,69.73679352,0.9090899229,0.3835088015,0.2048054785,40.29349518,13.28734875,34.83115768,1905,6,24,10,41,55,325959
0,348,99.91954803,-23.51257324,20.74497032,1.006714225,0.2972868681,0.2289217263,30.35340309,-7.3546772,35.07182693,1905,6,14,11,54,31,80987,0,348,111.9770355,-41.24838257,69.89192963,0.8916483521,0.4307879508,0.1900283694,65.58850861,15.61565876,51.19668198,1905,6,24,10,41,55,368952
0,349,100.0128937,-23.60174942,20.82526779,0.9906049967,0.3443278372,0.2445263565,45.5922966,-12.46305847,45.86757278,1905,6,14,11,54,31,124079,0,349,112.0844116,-41.39418793,69.94996643,0.8859556317,0.4435307086,0.1761969775,55.06826019,16.10217094,59.55134964,1905,6,24,10,41,55,408963
0,350,100.1328125,-23.71371651,20.93603897,0.9483334422,0.3782688081,0.3205398321,62.49431992,-17.81469536,58.82934189,1905,6,14,11,54,31,164089,0,350,112.1838608,-41.54716492,69.98036957,0.8488922715,0.4756852984,0.1516078562,41.45381546,13.11359501,62.26747513,1905,6,24,10,41,55,449064
0,351,100.2649689,-23.84395981,21.11367989,0.9874557853,0.387557894,0.3234952688,92.50798035,-23.13158035,65.8775177,1905,6,14,11,54,31,204095,0,351,112.2495499,-41.69984055,70.02115631,0.8182484508,0.5095071793,0.1486524343,36.54178619,3.661353588,59.37944031,1905,6,24,10,41,55,489073
0,352,100.4059525,-23.9956398,21.28734779,0.9735267758,0.3627869785,0.34264642,92.46929932,-30.04700661,72.16930389,1905,6,14,11,54,31,244986,0,352,112.3045197,-41.85505295,70.04528809,0.7803372741,0.4973598719,0.1763152033,27.41391945,-0.2654964924,58.48552704,1905,6,24,10,41,55,529078
0,353,100.5366592,-24.16413498,21.45495796,0.9357367158,0.3571896851,0.3748013973,88.29214478,-37.86595535,71.00033569,1905,6,14,11,54,31,284991,0,353,112.35112,-42.01545334,70.05664063,0.7541749477,0.5474972129,0.1881368905,20.25860214,-3.323574543,60.65155029,1905,6,24,10,41,55,569080
0,354,100.6485596,-24.34401321,21.60987091,0.9012169838,0.3295605481,0.3850862682,80.0151825,-44.71187973,65.98065948,1905,6,14,11,54,31,325004,0,354,112.4121323,-42.18302917,70.05141449,0.739155829,0.5856063366,0.1852996796,16.66160393,-0.7172580361,65.25865173,1905,6,24,10,41,55,609080
0,355,100.7375107,-24.53770256,21.72297287,0.8408982158,0.3387305737,0.4197238386,58.47187042,-53.29534912,60.17021179,1905,6,14,11,54,31,368064,0,355,112.4687042,-42.35604095,70.04302979,0.6792004108,0.6488437057,0.2053965628,14.1088953,-3.42782712,69.28127289,1905,6,24,10,41,55,649088
0,356,100.8113022,-24.72914314,21.81310844,0.7947508097,0.3614769578,0.4426579177,46.01774979,-54.68538666,54.66919708,1905,6,14,11,54,31,408077,0,356,112.5299149,-42.50968552,70.02292633,0.6606687903,0.6262164116,0.2048054785,10.55057526,0.04726149142,62.1987114,1905,6,24,10,41,55,693995
0,357,100.8776016,-24.91031647,21.9296608,0.7612000108,0.4278106987,0.4934911728,55.06826019,-52.14857101,50.99039459,1905,6,14,11,54,31,448081,0,357,112.5776138,-42.63859558,70.01327515,0.6146424413,0.6700419188,0.2055147737,9.931736946,-1.44702661,54.66919708,1905,6,24,10,41,55,734005
0,358,100.9391098,-25.08595276,22.06121635,0.6818650961,0.3754106164,0.4755222201,60.63780594,-50.58478165,48.44617462,1905,6,14,11,54,31,488083,0,358,112.6290131,-42.75162125,69.99131775,0.5873900056,0.6857619286,0.2174546868,5.52251339,0.3252685666,51.09353638,1905,6,24,10,41,55,817014
0,359,100.990509,-25.25974655,22.17371178,0.6686628461,0.3526642323,0.5094504356,51.23919678,-51.14079666,44.42355728,1905,6,14,11,54,31,528097,0,359,112.7136383,-42.91561508,69.95215607,0.5228319764,0.7069601417,0.207997337,1.035935283,1.576300502,39.88521576,1905,6,24,10,41,55,858979
0,360,101.0424805,-25.42556381,22.25289726,0.5893279314,0.3855333626,0.5594562292,33.56362534,-46.65793228,42.22314835,1905,6,14,11,54,31,568990,0,360,112.7689972,-42.97838593,69.92967987,0.5087818503,0.7449501753,0.2258480936,3.74335289,4.63437891,37.78795624,1905,6,24,10,41,55,898981
0,361,101.1424332,-25.73464966,22.38968468,0.5269501209,0.3818415403,0.6132448912,29.34778976,-43.18284225,41.84495544,1905,6,14,11,54,31,608999,0,361,112.8177338,-43.03594971,69.90435028,0.4919459224,0.7487611175,0.2134353071,-0.008354506455,3.418097496,35.34687805,1905,6,24,10,41,55,942984
0,362,101.1885834,-25.87613106,22.44658279,0.4644512534,0.3841042519,0.6666789651,24.59047127,-42.24456787,40.12588501,1905,6,14,11,54,31,649005,0,362,112.8527985,-43.07988739,69.88755798,0.4901291132,0.7404247522,0.2194643766,-0.5111606717,0.846531868,28.95194817,1905,6,24,10,41,55,983005
0,363,101.2248917,-26.00403404,22.51288605,0.429204762,0.3270596564,0.6614774466,26.75640488,-38.73472977,34.65925217,1905,6,14,11,54,31,689015,0,363,112.8825226,-43.11563873,69.87757874,0.4788647592,0.7754374743,0.2405069917,0.9972578883,-0.3349982798,25.99515343,1905,6,24,10,41,56,26058
0,364,101.2566757,-26.114748,22.58276749,0.4160024822,0.3805315197,0.7162118554,26.17624283,-35.50289536,32.14941406,1905,6,14,11,54,31,729994,0,364,112.9119644,-43.13902283,69.87615204,0.466994822,0.7673392892,0.2191097289,2.660385847,1.055037141,20.90671349,1905,6,24,10,41,56,44949
0,365,101.2915878,-26.22304344,22.63604927,0.3811193407,0.322891444,0.7173939943,19.83315086,-36.47592163,33.73095703,1905,6,14,11,54,31,771960,0,365,112.9304886,-43.15326691,69.8835144,0.4465252161,0.7940157056,0.2246659249,3.782030344,-0.5782544613,16.78095245,1905,6,24,10,41,56,84955
0,366,101.3183899,-26.3111248,22.68855858,0.3472051919,0.3172941804,0.7048630118,18.05398941,-32.79232788,28.78004265,1905,6,14,11,54,31,811967,0,366,112.9484177,-43.16296005,69.88993835,0.4322328269,0.7986602783,0.2127260119,3.008482456,0.1515141577,14.99312115,1905,6,24,10,41,56,127925
0,367,101.34021,-26.38370323,22.74945831,0.3456306159,0.3530215025,0.7390277386,20.91611671,-28.83072472,24.96371269,1905,6,14,11,54,31,851975,0,367,112.9747772,-43.16596603,69.88699341,0.4134589136,0.7897284031,0.2117802799,1.577418804,3.244343042,13.41157913,1905,6,24,10,41,56,167942
0,368,101.3605347,-26.44061279,22.81884003,0.3002098799,0.378149718,0.7828862071,25.75079155,-25.70314598,22.2475853,1905,6,14,11,54,31,891984,0,368,112.9950409,-43.16140747,69.88383484,0.400498867,0.7993748188,0.2269120365,0.3397420645,2.306069136,10.17973232,1905,6,24,10,41,56,212945
0,369,101.3850937,-26.48446083,22.87678909,0.2698082924,0.3411124051,0.7747292519,23.39147186,-21.56779099,21.38805199,1905,6,14,11,54,31,933974,0,369,113.009491,-43.15229034,69.8892746,0.4088562727,0.7943729758,0.2219469249,1.654773593,1.159289837,7.601131439,1905,6,24,10,41,56,252954
0,370,101.4097977,-26.51387215,22.91209984,0.2295957804,0.3151505291,0.7565238476,15.26921749,-16.8069191,18.6719265,1905,6,14,11,54,31,974221,0,370,113.0170593,-43.14078522,69.89422607,0.3863275945,0.783059299,0.2161543071,-0.2404188961,-0.2654964924,6.157114983,1905,6,24,10,41,56,292960
0,371,101.4311752,-26.5277462,22.93901253,0.2203905135,0.3322996497,0.784068346,11.20809078,-11.31627846,14.99312115,1905,6,14,11,54,33,14221,0,371,113.0178299,-43.12517929,69.90313721,0.4060704708,0.8049720526,0.2221833616,-0.6271928549,-1.586030245,3.853564739,1905,6,24,10,41,56,337917
0,372,101.4500046,-26.53474426,22.96765327,0.2218439728,0.3178896308,0.797781527,12.21370316,-9.404979706,12.68957138,1905,6,14,11,54,33,40002,0,372,113.0292206,-43.10858154,69.90460968,0.3977130651,0.8180720806,0.2295128107,-0.4338058829,1.402546048,4.678717136,1905,6,24,10,41,56,377926
0,373,101.46138,-26.53281021,22.98851967,0.2127598226,0.2868068516,0.8045198917,8.810091972,-7.458930016,8.151232719,1905,6,14,11,54,33,80010,0,373,113.0441284,-43.08504105,69.90503693,0.4137011468,0.8237884641,0.2247841358,-0.5498380661,3.174841166,2.065734386,1905,6,24,10,41,56,420897
0,374,101.4630432,-26.52756119,23.00185394,0.2001631409,0.3256305456,0.8039287925,2.621708393,-7.14617157,4.816242218,1905,6,14,11,54,33,120834,0,374,113.0545883,-43.05786133,69.90738678,0.4367143214,0.8104502559,0.22738491,-0.7819024324,2.618827105,0.2779043019,1905,6,24,10,41,56,464904
0,375,101.4663239,-26.51988411,23.01014328,0.2027067095,0.3608815074,0.8289908171,0.1463550776,-5.686634541,5.160055637,1905,6,14,11,54,33,160840,0,375,113.0578384,-43.02906036,69.91499329,0.440469116,0.8351021409,0.2256116569,-1.052644253,0.846531868,-1.200493693,1905,6,24,10,41,56,504915
0,376,101.4737473,-26.50702477,23.01684761,0.2002842724,0.3383733034,0.8068842292,0.6104838252,-3.254072666,5.641394615,1905,6,14,11,54,33,200848,0,376,113.0558853,-42.99948883,69.92429352,0.4175770581,0.8185484409,0.2181639969,-1.439418197,-0.2307455987,-1.784976602,1905,6,24,10,41,56,544958
0,377,101.4816284,-26.48545265,23.02743149,0.2115486115,0.3440896571,0.8354927301,2.389644146,0.1167632714,4.334903717,1905,6,14,11,54,33,245743,0,377,113.0570755,-42.97255325,69.93685913,0.4395001233,0.8245030046,0.2330593169,0.6104838252,-0.1959947199,-0.6503921151,1905,6,24,10,41,56,584972
0,378,101.4882278,-26.46190262,23.0251255,0.2283845544,0.3437323868,0.8333648443,-3.644029856,0.846531868,3.64727664,1905,6,14,11,54,33,285747,0,378,113.0572433,-42.92349243,69.96369934,0.4258133471,0.8066393733,0.2148539126,0.3010646701,-0.1612438262,0.1059975624,1905,6,24,10,41,56,624973
0,379,101.4869614,-26.43277168,23.03037834,0.2145766616,0.3468287587,0.8396303058,-1.632805109,1.715304017,-0.03152783215,1905,6,14,11,54,33,326736,0,379,113.0554276,-42.8983345,69.97808075,0.429204762,0.831648469,0.2191097289,0.4170968533,-0.8562615514,-0.2378159165,1905,6,24,10,41,56,666157
0,380,101.4840927,-26.4022541,23.03034973,0.2140921652,0.3820797205,0.8668202162,-4.765674591,2.340820074,-0.5816293955,1905,6,14,11,54,33,366743,0,380,113.0549622,-42.87217712,69.99012756,0.4118843377,0.8139039278,0.2140263915,0.03032289073,-0.2307455987,-0.3409599662,1905,6,24,10,41,56,706168
0,381,101.482811,-26.37721252,23.03951454,0.2189370394,0.3701706231,0.8354927301,-0.8592572212,0.5685247779,0.8967685699,1905,6,14,11,54,33,406751,0,381,113.0550003,-42.84682465,70.00584412,0.4340496361,0.8337920904,0.207051605,1.229322195,0.01251060329,-0.2378159165,1905,6,24,10,41,56,749929
0,382,101.4830093,-26.35247803,23.04721069,0.2110641152,0.3687415123,0.8430585861,-0.8592572212,0.4990229905,1.378107429,1905,6,14,11,54,33,446756,0,382,113.056839,-42.82381439,70.0198288,0.4300526083,0.8115220666,0.2173364758,1.345354438,-0.1264929324,0.9311499,1905,6,24,10,41,56,789935
0,383,101.4818268,-26.32625961,23.05754089,0.2080360651,0.3495678604,0.8427039385,0.4557742476,0.6380265355,0.4841924012,1905,6,14,11,54,33,491742,0,383,113.0547638,-42.80002594,70.03934479,0.4454351068,0.8317675591,0.2095341533,1.925515413,-0.9605142474,-0.03152783215,1905,6,24,10,41,56,830987
0,384,101.4762039,-26.29477882,23.06679153,0.2042812854,0.3702897131,0.8395121098,-1.284708619,2.236567259,-1.716213942,1905,6,14,11,54,33,536758,0,384,113.0547333,-42.77410126,70.05173492,0.4229064286,0.8254557252,0.2101252377,-0.008354506455,-0.09174205363,-0.375341326,1905,6,24,10,41,56,871936
0,385,101.476944,-26.26743507,23.07860756,0.2071882188,0.3800551593,0.8383299112,0.5331290364,1.819556713,1.274963379,1905,6,14,11,54,33,576769,0,385,113.0536804,-42.74827957,70.06515503,0.4166080952,0.8329584599,0.2102434486,0.1076776832,-0.4045000374,-0.409722656,1905,6,24,10,41,56,913899
0,386,101.4772797,-26.24135017,23.09259605,0.2169990987,0.3564751446,0.8469597697,2.080224991,0.8812827468,1.103056669,1905,6,14,11,54,33,616781,0,386,113.0585938,-42.72545624,70.07454681,0.4162447155,0.8196202517,0.2155632228,0.4170968533,0.7422792315,1.412488818,1905,6,24,10,41,56,955898
0,387,101.4761276,-26.21450806,23.10400009,0.2201482654,0.3594524264,0.8425857425,0.3784194589,1.124539018,0.587336421,1905,6,14,11,54,33,659742,0,387,113.0601654,-42.70339203,70.08988953,0.4295681417,0.8215257525,0.2131988853,1.732128382,-0.1959947199,1.240581989,1905,6,24,10,41,57,910
0,388,101.4714584,-26.18512917,23.1229744,0.2186948061,0.3674315214,0.8432950377,2.853772879,1.611051321,-0.9942055941,1905,6,14,11,54,33,699750,0,388,113.0582809,-42.67886353,70.10397339,0.4149123728,0.8205730319,0.2118984908,0.2237098813,-0.9257633686,0.002853517653,1905,6,24,10,41,57,40003
0,389,101.4700394,-26.15902901,23.13344574,0.2045235336,0.3649305999,0.8385663629,-0.0470319055,0.8117809892,0.6217178106,1905,6,14,11,54,33,784771,0,389,113.0611725,-42.65530396,70.12036133,0.4231486619,0.8220021129,0.222774446,2.699063301,0.08201237768,0.8967685699,1905,6,24,10,41,57,83985
0,390,101.4700241,-26.13049316,23.14777756,0.2042812854,0.3702897131,0.8559442759,2.234934568,1.750054955,0.6217178106,1905,6,14,11,54,33,824771,0,390,113.0654602,-42.6317482,70.12928772,0.4252077341,0.8340302706,0.2118984908,-0.008354506455,0.5337738991,0.1747602522,1905,6,24,10,41,57,123995
0,391,101.4709244,-26.10485458,23.16132355,0.2021010965,0.3625487685,0.837620616,1.848160625,0.8812827468,1.446870089,1905,6,14,11,54,33,864783,0,391,113.0686646,-42.60599136,70.13887024,0.4403479993,0.835221231,0.215326786,0.9585804343,0.3600194454,0.2091416121,1905,6,24,10,41,57,204000
0,392,101.4718552,-26.07976532,23.17544174,0.2100951374,0.3509969413,0.8283997178,2.273612022,0.5685247779,1.481251478,1905,6,14,11,54,33,907755,0,392,113.0706482,-42.58115005,70.15203857,0.4138222635,0.8190248013,0.2031504363,-0.08570930362,0.5337738991,0.4841924012,1905,6,24,10,41,57,244074
0,393,101.470665,-26.05222511,23.18891525,0.2013743669,0.382794261,0.8483783603,1.113290071,1.472047806,0.518573761,1905,6,14,11,54,33,951824,0,393,113.0731506,-42.55679321,70.16251373,0.4153968692,0.8326011896,0.2116620541,0.5331290364,0.4295212328,-0.2378159165,1905,6,24,10,41,57,286067
0,394,101.471962,-26.02672195,23.20195007,0.2054925114,0.376363337,0.840221405,1.306676984,1.089788079,1.721920967,1905,6,14,11,54,33,991824,0,394,113.0744476,-42.53046036,70.17465973,0.4283569157,0.8315293789,0.2127260119,1.693451047,0.3600194454,1.137438059,1905,6,24,10,41,57,326069
0,395,101.4736099,-26.00115967,23.20730209,0.2097317725,0.3573087752,0.8449500799,-1.246031165,0.846531868,1.618776917,1905,6,14,11,54,34,31833,0,395,113.0780258,-42.50776672,70.18896484,0.4276301861,0.8189057112,0.203386873,1.577418804,-0.3349982798,2.684598684,1905,6,24,10,41,57,369988
0,396,101.4738464,-25.97291565,23.21725464,0.2104585171,0.3724333346,0.8437678814,0.06900028884,1.854307532,0.8623872399,1905,6,14,11,54,34,43920,0,396,113.0800552,-42.48955536,70.20391083,0.4284780324,0.8190248013,0.2020864934,1.654773593,0.04726149142,2.753361464,1905,6,24,10,41,57,410977
0,397,101.4726715,-25.94259644,23.23181915,0.2069459707,0.3630251586,0.8453047276,1.925515413,2.340820074,-0.03152783215,1905,6,14,11,54,34,127903,0,397,113.0838547,-42.47135925,70.21834564,0.4162447155,0.802590251,0.2083519846,-0.7045476437,-0.5087527037,-1.991264701,1905,6,24,10,41,57,453089
0,398,101.4724045,-25.88862038,23.25165176,0.2048868984,0.3830324411,0.8533434868,0.7651934624,1.611051321,1.06867528,1905,6,14,11,54,34,167906,0,398,113.0809708,-42.44192886,70.23064423,0.4092196524,0.8083066344,0.1925109178,-1.439418197,-0.439250946,-7.732949734,1905,6,24,10,41,57,494009
0,399,101.4735794,-25.86509514,23.26943207,0.2123964578,0.3732669652,0.8456593752,3.549965858,0.1515141577,1.962590337,1905,6,14,11,54,34,207921,0,399,113.0706406,-42.39951324,70.24691772,0.4128533006,0.7974693179,0.2069333792,-0.4338058829,-0.6477562785,-10.41469479,1905,6,24,10,41,57,534018
0,400,101.4731293,-25.84344482,23.28911209,0.2039179206,0.3746960759,0.8430585861,4.01409483,-0.7867597938,1.687539577,1905,6,14,11,54,34,248929,0,400,113.0577621,-42.35044479,70.26659393,0.4084929228,0.7626947761,0.1740690768,-4.57228756,-5.443378448,-18.56307411,1905,6,24,10,41,57,574030
0,401,101.4728851,-25.81498909,23.29328156,0.1981040686,0.3147932589,0.7919889092,-1.323385954,1.333044291,0.243522957,1905,6,14,11,54,34,288941,0,401,113.0181656,-42.28781891,70.29510498,0.441074729,0.7956829667,0.1726504713,-8.053253174,-8.987968445,-27.84603882,1905,6,24,10,41,57,619005
0,402,101.4630814,-25.77074432,23.28577232,0.1898677796,0.3082432449,0.787733078,-8.053253174,6.024414063,-5.635687351,1905,6,14,11,54,34,328944,0,402,112.9554825,-42.20746231,70.33045197,0.4216952026,0.7463792562,0.1618927419,-7.589124203,-14.44385815,-32.69380951,1905,6,24,10,41,57,659018
0,403,101.4466934,-25.70917511,23.29691887,0.188535437,0.3395642042,0.7993183732,-2.058256626,11.96681499,-10.48345757,1905,6,14,11,54,34,368954,0,403,112.8686752,-42.12080383,70.38201141,0.4150334895,0.7292301655,0.1311563402,-17.06508636,-18.89197159,-44.52099228,1905,6,24,10,41,57,701991
0,404,101.4264832,-25.64056969,23.30173111,0.2011321187,0.2843059599,0.7400916815,-4.340223312,13.60010719,-13.33710957,1905,6,14,11,54,34,409916,0,404,112.7513123,-42.01264954,70.43023682,0.547904253,0.8146184683,0.2230108827,-10.60596085,-20.94227409,-45.62119675,1905,6,24,10,41,57,742000
0,405,101.3878784,-25.55702782,23.28422356,0.2051291466,0.2750168443,0.75274086,-16.44624901,16.41492844,-22.3450222,1905,6,14,11,54,34,453921,0,405,112.6299744,-41.90319061,70.49291992,0.4778957963,0.6615864635,0.2409798503,-10.72199345,-25.3556366,-59.40811539,1905,6,24,10,41,57,823996
0,406,101.3228073,-25.45104599,23.28701973,0.2375898212,0.3096723557,0.7247234583,-15.05386162,22.07932281,-34.3441124,1905,6,14,11,54,34,496003,0,406,112.3285599,-41.61118317,70.62530518,0.5184715986,0.7874656916,0.1685128808,-18.99895668,-22.81882286,-66.52505493,1905,6,24,10,41,57,864008
0,407,101.2488861,-25.33682632,23.24811935,0.2345617712,0.22761859,0.6705801487,-30.52482033,22.46158218,-39.98265457,1905,6,14,11,54,34,538914,0,407,112.1430664,-41.45432663,70.75807953,0.5831507444,0.7002910376,0.2256116569,4.903674603,-30.25551224,-74.74219513,1905,6,24,10,41,57,904013
0,408,101.1452332,-25.20490265,23.23948669,0.3178936839,0.4623470902,0.7633804083,-30.83423996,31.70531845,-51.87860107,1905,6,14,11,54,34,578961,0,408,111.757782,-41.12037277,70.97364807,0.4964274168,0.6352673173,0.2016136199,-5.577899456,-25.18188286,-80.27759552,1905,6,24,10,41,57,984029
0,409,101.0375977,-25.08399391,23.2359314,0.3555626273,0.2419095188,0.6111170053,-26.57972717,35.21516037,-56.76075363,1905,6,14,11,54,34,618972,0,409,111.5622177,-40.98973846,71.07870483,0.6324473619,0.4875943959,0.2239566147,-4.224190712,-34.91213226,-74.29524231,1905,6,24,10,41,58,24039
0,410,100.9355621,-24.94701004,23.15392113,0.3330339491,0.355284214,0.7052176595,-61.00260925,36.11868286,-53.08194733,1905,6,14,11,54,34,658986,0,410,111.3896103,-40.86724091,71.10565186,0.804440558,0.6474146247,0.2049236894,-31.76249695,-28.34421349,-67.48773193,1905,6,24,10,41,58,40002
0,411,100.7989883,-24.77845764,23.09877205,0.4276301861,0.3794597089,0.6867758632,-54.65951538,49.39352036,-73.43570709,1905,6,14,11,54,34,702914,0,411,111.2406464,-40.79127502,71.14121246,0.818490684,0.5810808539,0.3166386783,-18.45747375,-29.1782341,-49.57505035,1905,6,24,10,41,58,80010
