trigger,count,euler_1,euler_2,euler_3,gx,gy,gz,ax,ay,az,year,month,day,hour,minute,second,millisecond,trigger,count,euler_1,euler_2,euler_3,gx,gy,gz,ax,ay,az,year,month,day,hour,minute,second,millisecond
0,0,271.7832947,-6.088681221,19.95053482,0.1076259837,0.3175323606,0.8759229183,0.8425482512,1.750054955,0.8280058503,1905,5,22,8,34,17,646975,0,0,121.5575485,-12.93716717,70.79994202,0.2196637839,0.8638030887,0.3221948743,0.3397420645,0.3252685666,0.1059975624,1905,5,25,20,11,32,120027
0,1,271.7843628,-6.09047842,19.95501328,0.1001164243,0.3227723539,0.8838434219,1.074612617,0.846531868,0.2091416121,1905,5,22,8,34,17,686975,0,1,121.5574875,-12.94779396,70.79157257,0.2186948061,0.8572530746,0.3219584525,0.9972578883,-0.4045000374,0.002853517653,1905,5,25,20,11,32,281955
0,2,271.7858276,-6.100533009,19.95607567,0.1041134447,0.3205096424,0.8805333972,0.6104838252,0.5685247779,0.3810483515,1905,5,22,8,34,17,726983,0,2,121.5521011,-12.9609251,70.7664032,0.2200271487,0.8682094216,0.3310611546,0.9972578883,-1.273272276,0.6217178106,1905,5,25,20,11,32,322977
0,3,271.7878113,-6.109066486,19.95386124,0.1047190577,0.3178896308,0.8836070299,1.151967406,1.367795229,0.07161621004,1905,5,22,8,34,17,766989,0,3,121.5522614,-12.96614742,70.75157928,0.2161512375,0.8582057953,0.3276328444,1.113290071,-0.8910124898,0.1059975624,1905,5,25,20,11,32,482479
0,4,271.7919922,-6.112830162,19.94584465,0.1025388613,0.3152696192,0.8852620721,0.4557742476,2.028062105,0.6217178106,1905,5,22,8,34,17,810036,0,4,121.5539856,-12.97535706,70.72338104,0.2148188949,0.8615403175,0.3302336335,0.8812256455,0.4295212328,0.1403789073,1905,5,25,20,11,32,562486
0,5,271.7950745,-6.119944572,19.94812012,0.1015698835,0.3217005432,0.8818337321,1.19064486,1.472047806,0.6904804707,1905,5,22,8,34,17,850050,0,5,121.5575104,-12.98759842,70.70303345,0.2167568505,0.8598730564,0.3182937205,0.4170968533,-0.1264929324,0.6560991406,1905,5,25,20,11,32,605047
0,6,271.7992249,-6.125180721,19.94668007,0.1022966132,0.3186041713,0.882543087,0.9972578883,1.819556713,0.9311499,1905,5,22,8,34,17,892031,0,6,121.5567398,-12.99679089,70.68953705,0.2199060172,0.8611830473,0.3282239437,0.8038708568,-0.300247401,1.034294009,1905,5,25,20,11,32,645995
0,7,271.8039551,-6.131141663,19.9453125,0.1047190577,0.3190805316,0.8837252259,0.726516068,1.923809409,1.206200719,1905,5,22,8,34,17,932038,0,7,121.5610199,-13.00673008,70.67038727,0.2176047117,0.8715440035,0.3207762837,-0.2404188961,-0.3349982798,0.7248618007,1905,5,25,20,11,32,730048
0,8,271.8083801,-6.137810707,19.94286156,0.1037500799,0.3190805316,0.8831341267,0.2623872757,1.645802259,1.137438059,1905,5,22,8,34,17,976934,0,8,121.5606689,-13.01179886,70.66531372,0.222086221,0.876783967,0.3221948743,1.267999649,0.08201237768,0.2091416121,1905,5,25,20,11,32,770061
0,9,271.8108521,-6.14189291,19.94827461,0.1015698835,0.3245587349,0.882779479,0.6491612792,1.124539018,0.7936245203,1905,5,22,8,34,18,16937,0,9,121.5577774,-13.01874065,70.65699768,0.2209961265,0.8652321696,0.3271600008,1.538741469,-0.5087527037,0.002853517653,1905,5,25,20,11,32,850420
0,10,271.8126526,-6.147106171,19.95534134,0.1030233502,0.3244396448,0.8798240423,0.8038708568,0.7422792315,0.7248618007,1905,5,22,8,34,18,40008,0,10,121.5536041,-13.03131199,70.64797211,0.2222073376,0.8630884886,0.3166386783,1.113290071,-0.300247401,-0.1690532267,1905,5,25,20,11,32,971231
0,11,271.8156128,-6.154496193,19.95470428,0.1021754965,0.3201523721,0.8840798736,1.035935283,0.9160336256,0.7248618007,1905,5,22,8,34,18,80015,0,11,121.5505829,-13.05675411,70.6187439,0.2190581709,0.8665421605,0.321485579,2.080224991,-0.8562615514,0.3122856617,1905,5,25,20,11,33,40011
0,12,271.7981262,-6.147097588,19.96492767,0.1018121317,0.3245587349,0.8831341267,1.500064015,1.367795229,-8.008000374,1905,5,22,8,34,18,120016,0,12,121.5507813,-13.06258106,70.61302185,0.2201482654,0.8660658002,0.3239681423,2.041547537,-0.5782544613,0.587336421,1905,5,25,20,11,33,160031
0,13,271.7999268,-6.148567677,19.97443581,0.09890519828,0.3278932869,0.8818337321,1.267999649,1.611051321,0.4154296815,1905,5,22,8,34,18,160021,0,13,121.5486603,-13.08085155,70.5896225,0.2183314413,0.8677330613,0.3249138594,1.229322195,-0.6477562785,0.4154296815,1905,5,25,20,11,33,201010
0,14,271.8040466,-6.15342617,19.97161674,0.1025388613,0.3176514506,0.8832523823,1.422709227,2.306069136,0.587336421,1905,5,22,8,34,18,200025,0,14,121.5486374,-13.08625031,70.58152771,0.2193004191,0.8640412688,0.3272781968,2.002870083,-0.6130053401,0.4841924012,1905,5,25,20,11,33,241019
0,15,271.8068542,-6.153214931,19.97959709,0.1008431539,0.3253923655,0.8818337321,1.384031773,2.340820074,0.552955091,1905,5,22,8,34,18,244999,0,15,121.5473938,-13.10012722,70.56594849,0.2234185636,0.8633267283,0.3207762837,0.7651934624,0.01251060329,0.4841924012,1905,5,25,20,11,33,324746
0,16,271.8085938,-6.160643101,19.98364639,0.1050824225,0.3222959936,0.8799422979,1.035935283,1.437296987,0.243522957,1905,5,22,8,34,18,289007,0,16,121.5463791,-13.10779572,70.55210876,0.2168779671,0.864279449,0.3205398321,1.654773593,-0.7172580361,0.3122856617,1905,5,25,20,11,33,364753
0,17,271.8102112,-6.161266804,19.98740196,0.1008431539,0.3231296539,0.8830159307,0.8038708568,1.333044291,0.2779043019,1905,5,22,8,34,18,329008,0,17,121.5473557,-13.11337852,70.54103088,0.220269382,0.8696385026,0.3316522241,1.654773593,-0.3349982798,0.6904804707,1905,5,25,20,11,33,447815
0,18,271.8139038,-6.167852879,19.98219109,0.1027811021,0.3168178201,0.8836070299,1.113290071,1.541549563,0.587336421,1905,5,22,8,34,18,372250,0,18,121.545845,-13.11702442,70.53966522,0.2189370394,0.8665421605,0.3158111572,1.422709227,-0.6130053401,0.1403789073,1905,5,25,20,11,33,487825
0,19,271.8161316,-6.172569752,19.98686409,0.1021754965,0.3227723539,0.8797058463,1.19064486,1.576300502,0.4154296815,1905,5,22,8,34,18,412993,0,19,121.5443192,-13.12677193,70.52282715,0.2189370394,0.8667803407,0.3272781968,1.770805836,-0.7520089149,0.07161621004,1905,5,25,20,11,33,527826
0,20,271.8186646,-6.177986145,19.99000168,0.1015698835,0.3227723539,0.8811244369,1.074612617,1.437296987,0.518573761,1905,5,22,8,34,18,453000,0,20,121.5464249,-13.12845135,70.51494598,0.2143344134,0.8647558093,0.3253867328,1.19064486,-0.3349982798,0.4841924012,1905,5,25,20,11,33,567839
0,21,271.8212891,-6.179288387,19.99467087,0.1030233502,0.3220578134,0.8836070299,1.809483171,1.472047806,0.6217178106,1905,5,22,8,34,18,493105,0,21,121.5482864,-13.13299274,70.50190735,0.2197849005,0.8673757911,0.3312975764,1.461386681,0.08201237768,0.6904804707,1905,5,25,20,11,33,608995
0,22,271.8249817,-6.184895992,19.99535561,0.1024177372,0.3209860027,0.8812426925,1.151967406,1.611051321,0.8967685699,1905,5,22,8,34,18,577000,0,22,121.5487595,-13.13745308,70.49687958,0.2176047117,0.8648748994,0.3208944798,0.5718064308,-0.02224028297,0.6560991406,1905,5,25,20,11,33,651822
0,23,271.8282776,-6.18856144,19.99655151,0.1008431539,0.3227723539,0.8834887743,0.6878386736,1.472047806,0.7936245203,1905,5,22,8,34,18,617013,0,23,121.5405045,-13.12388706,70.49048615,0.2182103097,0.8673757911,0.3247956634,1.461386681,0.3252685666,0.7936245203,1905,5,25,20,11,33,771984
0,24,271.831543,-6.196153641,19.995718,0.1041134447,0.3196760118,0.8818337321,0.9585804343,1.298293352,0.7248618007,1905,5,22,8,34,18,657989,0,24,121.5401382,-13.13098717,70.47655487,0.2178469449,0.8741639853,0.3256231844,0.9585804343,-0.6477562785,9.217055321,1905,5,25,20,11,33,811990
0,25,271.8348083,-6.197935581,19.9971962,0.1007220298,0.3213432729,0.8824248314,1.074612617,1.298293352,0.8623872399,1905,5,22,8,34,18,698000,0,25,121.5409393,-13.13208771,70.46857452,0.2134865522,0.8676139712,0.3259778321,1.074612617,-0.1264929324,0.587336421,1905,5,25,20,11,33,894002
0,26,271.8384399,-6.206075191,19.99645805,0.1043556929,0.319914192,0.8823066354,1.035935283,1.124539018,0.9655312896,1905,5,22,8,34,18,738008,0,26,121.541008,-13.13805676,70.45272064,0.2188159227,0.8608257771,0.323377043,1.345354438,0.1167632714,0.4498110414,1905,5,25,20,11,33,934014
0,27,271.840332,-6.206843376,20.00233459,0.09999530017,0.3242014647,0.8805333972,0.9585804343,1.055037141,0.552955091,1905,5,22,8,34,18,780089,0,27,121.5433197,-13.14285374,70.44818115,0.2203905135,0.8635649085,0.3205398321,1.229322195,0.04726149142,0.7936245203,1905,5,25,20,11,33,974024
0,28,271.8424072,-6.204440594,20.00818825,0.09805734456,0.3237251043,0.8800604939,1.035935283,1.020286322,0.6560991406,1905,5,22,8,34,18,820090,0,28,121.5436172,-13.1473608,70.44210815,0.2163934857,0.8655894399,0.3240863383,1.422709227,-0.300247401,1.137438059,1905,5,25,20,11,34,14028
0,29,271.8448792,-6.206879616,20.01136971,0.1029022262,0.3213432729,0.8837252259,1.886837959,1.298293352,0.518573761,1905,5,22,8,34,18,863983,0,29,121.5445557,-13.15100861,70.42665863,0.2148188949,0.8701148629,0.3312975764,1.809483171,-0.5087527037,0.3466669917,1905,5,25,20,11,34,80751
0,30,271.8487854,-6.208189487,20.01475906,0.09914744645,0.3227723539,0.8808880448,1.229322195,1.541549563,1.06867528,1905,5,22,8,34,18,903987,0,30,121.544426,-13.15058041,70.42436981,0.2130020708,0.8724967241,0.3221948743,1.770805836,-0.05699117109,0.2779043019,1905,5,25,20,11,34,122777
0,31,271.8505554,-6.20847702,20.02400017,0.1006009057,0.3263450861,0.8799422979,1.345354438,1.228791595,0.587336421,1905,5,22,8,34,18,943999,0,31,121.5427704,-13.15530014,70.42224121,0.2195426524,0.8632076383,0.3169933259,1.384031773,-0.3349982798,0.3122856617,1905,5,25,20,11,34,162786
0,32,271.8523865,-6.212293148,20.02877998,0.1022966132,0.323248744,0.8805333972,1.306676984,1.124539018,0.4154296815,1905,5,22,8,34,18,986993,0,32,121.5430298,-13.15689278,70.40001678,0.2139710486,0.8657085299,0.3268053532,0.726516068,-1.030016065,0.587336421,1905,5,25,20,11,34,243813
0,33,271.8545227,-6.211712837,20.03663826,0.099753052,0.3251541853,0.879114747,1.345354438,1.402546048,0.587336421,1905,5,22,8,34,19,31976,0,33,121.5392609,-13.16123104,70.39347076,0.216272369,0.8645176291,0.3201851845,0.8425482512,0.1515141577,0.1747602522,1905,5,25,20,11,34,366254
0,34,271.8581848,-6.214771748,20.0369091,0.1002375409,0.3203905523,0.8786419034,0.8038708568,1.333044291,0.9311499,1905,5,22,8,34,19,40005,0,34,121.5394058,-13.1638298,70.3874054,0.2174835801,0.8673757911,0.3239681423,0.9585804343,-0.09174205363,0.3810483515,1905,5,25,20,11,34,447932
0,35,271.8611145,-6.212789059,20.04458809,0.1001164243,0.3256305456,0.8801787496,1.074612617,1.228791595,1.06867528,1905,5,22,8,34,19,123089,0,35,121.5391159,-13.1647253,70.37898254,0.2149400264,0.8673757911,0.325150311,1.345354438,-0.2307455987,0.3466669917,1905,5,25,20,11,34,529999
0,36,271.8667297,-6.206009388,20.05234337,0.09926857054,0.3225341737,0.8828977346,1.19064486,1.263542533,0.8967685699,1905,5,22,8,34,19,163096,0,36,121.5326233,-13.17024517,70.3687973,0.213849932,0.8697575927,0.3208944798,1.654773593,0.1167632714,0.6217178106,1905,5,25,20,11,34,570006
0,37,271.868927,-6.205842495,20.05667305,0.09817846864,0.3239632845,0.8812426925,1.306676984,1.055037141,0.552955091,1905,5,22,8,34,19,203102,0,37,121.5354462,-13.17141628,70.36051178,0.2185736746,0.8682094216,0.3250320852,1.229322195,-0.1612438262,-0.1346718818,1905,5,25,20,11,34,668937
0,38,271.8710022,-6.202923775,20.05935478,0.09951081127,0.3219387233,0.8821884394,1.384031773,1.089788079,0.4498110414,1905,5,22,8,34,19,246028,0,38,121.5347977,-13.17283249,70.35674286,0.2154245079,0.8635649085,0.3213673532,1.345354438,-0.439250946,0.1403789073,1905,5,25,20,11,34,708945
0,39,271.8739014,-6.193578243,20.05942154,0.09611939639,0.3203905523,0.8811244369,0.9972578883,1.298293352,0.6904804707,1905,5,22,8,34,19,287110,0,39,121.5576859,-13.16499424,70.34951019,0.2151822597,0.8716630936,0.3243227899,1.886837959,8.804485321,0.3122856617,1905,5,25,20,11,34,748949
0,40,271.8778992,-6.195910454,20.05953407,0.1014487594,0.3206287324,0.8812426925,1.229322195,1.437296987,1.06867528,1905,5,22,8,34,19,327114,0,40,121.5606918,-13.16579151,70.34235382,0.216272369,0.8651130795,0.3278692961,1.461386681,-0.02224028297,0.4154296815,1905,5,25,20,11,34,788958
0,41,271.8799438,-6.190338135,20.06660843,0.09866295755,0.324677825,0.8784054518,1.035935283,1.715304017,0.4841924012,1905,5,22,8,34,19,367116,0,41,121.5591278,-13.17023087,70.33784485,0.2182103097,0.8671376109,0.3225495219,1.693451047,-0.1959947199,0.1747602522,1905,5,25,20,11,34,868975
0,42,271.8824768,-6.188655376,20.06816864,0.09878408164,0.3209860027,0.8812426925,1.538741469,1.263542533,0.4841924012,1905,5,22,8,34,19,408023,0,42,121.5613785,-13.16829872,70.32741547,0.2122753412,0.8640412688,0.330706507,1.035935283,0.08201237768,0.002853517653,1905,5,25,20,11,34,949754
0,43,271.8847046,-6.18497324,20.07240486,0.09902632236,0.3227723539,0.8797058463,1.19064486,1.298293352,0.552955091,1905,5,22,8,34,19,450014,0,43,121.5625458,-13.16985607,70.31556702,0.2146977782,0.8715440035,0.3237316906,0.9972578883,0.01251060329,0.7248618007,1905,5,25,20,11,35,29768
0,44,271.887085,-6.183860779,20.07715988,0.09769397974,0.326225996,0.8838434219,0.9972578883,1.263542533,0.6217178106,1905,5,22,8,34,19,490025,0,44,121.5842896,-13.16407585,70.30792999,0.2137288004,0.8711867332,0.3194758892,0.6878386736,8.839236259,1.034294009,1905,5,25,20,11,35,40968
0,45,271.8898621,-6.176972866,20.0826149,0.09781510383,0.3242014647,0.8805333972,1.19064486,1.750054955,0.6904804707,1905,5,22,8,34,19,532038,0,45,121.5846558,-13.16618824,70.30284882,0.2161512375,0.8659467101,0.3226677477,1.151967406,-0.3349982798,0.7592431903,1905,5,25,20,11,35,165105
0,46,271.8925171,-6.178162575,20.08675575,0.1013276428,0.322891444,0.8798240423,1.461386681,1.576300502,0.587336421,1905,5,22,8,34,19,572051,0,46,121.5886536,-13.16376781,70.2946167,0.2161512375,0.8736876249,0.3212491572,1.306676984,-0.09174205363,0.4498110414,1905,5,25,20,11,35,205115
0,47,271.8943176,-6.171572685,20.09327698,0.09793622792,0.324677825,0.8800604939,1.267999649,1.402546048,0.4498110414,1905,5,22,8,34,19,612053,0,47,121.5978317,-13.15711308,70.29302216,0.2119119763,0.8666612506,0.3247956634,1.577418804,-0.1612438262,0.2091416121,1905,5,25,20,11,35,245124
0,48,271.8968506,-6.162859917,20.09767914,0.09696725011,0.3243205547,0.8832523823,1.306676984,1.437296987,0.6560991406,1905,5,22,8,34,19,653035,0,48,121.5970993,-13.15384102,70.29058838,0.2093684077,0.8710676432,0.3223131001,1.151967406,-0.4045000374,-0.1002905294,1905,5,25,20,11,35,285124
0,49,271.9005432,-6.15703392,20.09722328,0.09587715566,0.3213432729,0.8837252259,1.384031773,1.645802259,0.7936245203,1905,5,22,8,34,19,693038,0,49,121.5972824,-13.15456676,70.28888702,0.2166357338,0.8677330613,0.3216038048,1.616096258,-0.09174205363,-0.03152783215,1905,5,25,20,11,35,325126
0,50,271.9025879,-6.150686264,20.10675621,0.0975728631,0.3288460076,0.8815973401,0.9972578883,1.750054955,0.587336421,1905,5,22,8,34,19,733041,0,50,121.5996094,-13.15090656,70.28672028,0.2111852467,0.8643985391,0.3238499165,1.732128382,-0.8562615514,-0.03152783215,1905,5,25,20,11,35,409930
0,51,271.9054565,-6.14947176,20.1091671,0.09829959273,0.3234869242,0.8819519877,1.229322195,1.576300502,0.587336421,1905,5,22,8,34,19,778009,0,51,121.603508,-13.1489563,70.27726746,0.2153033912,0.8716630936,0.3294061124,2.002870083,0.01251060329,0.552955091,1905,5,25,20,11,35,450960
0,52,271.9092712,-6.153698444,20.10428238,0.09866295755,0.3206287324,0.8811244369,0.9585804343,1.437296987,0.7248618007,1905,5,22,8,34,19,818024,0,52,121.6040573,-13.14968204,70.27594757,0.2163934857,0.8689239621,0.3242045641,2.234934568,-0.1264929324,0.1059975624,1905,5,25,20,11,35,490969
0,53,271.9118042,-6.145486355,20.11060715,0.09297022969,0.3271787465,0.8819519877,0.8425482512,1.159289837,0.8623872399,1905,5,22,8,34,19,858036,0,53,121.6032104,-13.15233517,70.27304077,0.2176047117,0.8593966961,0.3213673532,1.616096258,-0.6130053401,-0.06590917706,1905,5,25,20,11,35,530980
0,54,271.9144287,-6.145314217,20.11318398,0.09781510383,0.3227723539,0.8813608885,1.925515413,1.750054955,0.3122856617,1905,5,22,8,34,19,898044,0,54,121.6065979,-13.15203762,70.26680756,0.2159090042,0.8698766828,0.3265689015,0.5331290364,-0.1612438262,0.518573761,1905,5,25,20,11,35,610990
0,55,271.9374695,-6.154147148,20.11075783,0.099753052,0.3211050928,0.8806515932,1.306676984,1.541549563,9.388961792,1905,5,22,8,34,19,939086,0,55,121.6110306,-13.14914799,70.25447845,0.2117908448,0.8680903316,0.3285785913,0.7651934624,0.01251060329,0.243522957,1905,5,25,20,11,35,651983
0,56,271.9400024,-6.150235176,20.1161499,0.09829959273,0.3255114555,0.8819519877,1.19064486,1.784805775,0.552955091,1905,5,22,8,34,19,979093,0,56,121.6115036,-13.14950848,70.24996948,0.2145766616,0.868804872,0.3223131001,0.4557742476,-0.09174205363,0.3122856617,1905,5,25,20,11,35,691986
0,57,271.9430237,-6.146793365,20.11828995,0.09769397974,0.3231296539,0.8837252259,1.577418804,1.159289837,0.7936245203,1905,5,22,8,34,20,23304,0,57,121.6118774,-13.15070534,70.24828339,0.2142132968,0.8671376109,0.319712311,1.035935283,-0.3349982798,0.6560991406,1905,5,25,20,11,35,731998
0,58,271.9459534,-6.139326572,20.118927,0.0964827612,0.3227723539,0.8853802681,1.384031773,1.506798744,0.587336421,1905,5,22,8,34,20,40010,0,58,121.6144714,-13.15043831,70.24378204,0.2143344134,0.8719012737,0.3250320852,0.6491612792,-0.1264929324,0.7592431903,1905,5,25,20,11,35,812012
0,59,271.948822,-6.139433861,20.11619568,0.09987417608,0.3196760118,0.8819519877,1.229322195,1.541549563,0.3810483515,1905,5,22,8,34,20,80695,0,59,121.6208344,-13.14694977,70.23619843,0.216272369,0.8649939895,0.3237316906,1.229322195,-0.05699117109,0.243522957,1905,5,25,20,11,35,852019
0,60,271.9517212,-6.140283585,20.11986351,0.09781510383,0.3250350952,0.8815973401,1.151967406,1.263542533,0.7592431903,1905,5,22,8,34,20,120698,0,60,121.6176071,-13.14941025,70.23246002,0.2145766616,0.8744021654,0.3201851845,0.3397420645,0.3252685666,0.4154296815,1905,5,25,20,11,35,892019
0,61,271.9544373,-6.125404358,20.11815071,0.09515041858,0.3218196332,0.8877446055,1.384031773,1.576300502,0.4154296815,1905,5,22,8,34,20,162695,0,61,121.6193848,-13.14533234,70.2297821,0.215666756,0.8684476018,0.3220766783,1.229322195,-0.1612438262,-0.2034345716,1905,5,25,20,11,36,42725
0,62,271.9585266,-6.122511387,20.12194443,0.09672500938,0.3240823746,0.8794693947,1.229322195,2.062812805,1.034294009,1905,5,22,8,34,20,202697,0,62,121.6221619,-13.1450634,70.22525787,0.2122753412,0.8740448952,0.3236134946,1.306676984,0.255766809,0.03723486513,1905,5,25,20,11,36,82736
0,63,271.9604187,-6.118920326,20.12518883,0.09769397974,0.3233678341,0.8839616776,2.041547537,1.819556713,0.03723486513,1905,5,22,8,34,20,242708,0,63,121.6214447,-13.14424706,70.22238159,0.2105796337,0.8660658002,0.3225495219,1.538741469,0.2210159302,0.1059975624,1905,5,25,20,11,36,122747
0,64,271.9629822,-6.122513771,20.12359619,0.100964278,0.3217005432,0.8828977346,0.8812256455,1.472047806,0.3122856617,1905,5,22,8,34,20,282717,0,64,121.6222382,-13.14488029,70.22169495,0.2180891931,0.870233953,0.3208944798,1.461386681,0.2905176878,-0.1346718818,1905,5,25,20,11,36,163935
0,65,271.9673157,-6.120916367,20.11864471,0.09684612602,0.3190805316,0.8833705783,1.151967406,1.367795229,0.9655312896,1905,5,22,8,34,20,322729,0,65,121.6244125,-13.14358044,70.21873474,0.2142132968,0.8678521514,0.3220766783,0.8812256455,0.2210159302,0.07161621004,1905,5,25,20,11,36,203948
0,66,271.9703369,-6.116317272,20.12075424,0.09466593713,0.3234869242,0.8806515932,0.9585804343,1.263542533,0.7936245203,1905,5,22,8,34,20,367734,0,66,121.6248627,-13.14535904,70.21820068,0.2194215357,0.8666612506,0.3185301423,1.306676984,0.3252685666,-0.1690532267,1905,5,25,20,11,36,243948
0,67,271.9734802,-6.111207008,20.12261772,0.09672500938,0.3234869242,0.8817155361,0.7651934624,1.228791595,0.9311499,1905,5,22,8,34,20,410705,0,67,121.6251144,-13.14681339,70.21509552,0.2165146023,0.8673757911,0.3193576634,0.3784194589,0.04726149142,0.243522957,1905,5,25,20,11,36,283956
0,68,271.9773254,-6.112788677,20.12374878,0.09769397974,0.3236060143,0.8813608885,1.074612617,1.402546048,1.034294009,1905,5,22,8,34,20,450718,0,68,121.6249466,-13.14752388,70.2118454,0.2148188949,0.8719012737,0.3242045641,1.113290071,0.04726149142,0.3466669917,1905,5,25,20,11,36,323958
0,69,271.9815369,-6.113901138,20.12277222,0.09684612602,0.3212241828,0.8810062408,1.345354438,1.228791595,1.103056669,1905,5,22,8,34,20,490724,0,69,121.6254654,-13.14786339,70.2073822,0.2139710486,0.8632076383,0.3238499165,1.229322195,0.04726149142,0.1059975624,1905,5,25,20,11,36,363969
0,70,271.9843445,-6.112055302,20.12508774,0.09720949829,0.3240823746,0.8828977346,1.151967406,1.367795229,0.6560991406,1905,5,22,8,34,20,530735,0,70,121.6269455,-13.14910889,70.20620728,0.2190581709,0.8692812324,0.3205398321,0.9199030399,-0.1612438262,0.1403789073,1905,5,25,20,11,36,404722
0,71,271.9870911,-6.104085445,20.12628555,0.09733061492,0.3227723539,0.882661283,0.9972578883,1.298293352,0.6904804707,1905,5,22,8,34,20,570742,0,71,121.6256104,-13.14961052,70.20595551,0.2151822597,0.8694003224,0.319594115,1.345354438,-0.2654964924,-0.03152783215,1905,5,25,20,11,36,444723
0,72,271.9898376,-6.092586994,20.13149452,0.09442368895,0.3257496357,0.8837252259,1.267999649,1.506798744,0.7936245203,1905,5,22,8,34,20,610745,0,72,121.6246567,-13.15130043,70.2038269,0.215061143,0.8651130795,0.3206580579,1.267999649,-0.1264929324,0.243522957,1905,5,25,20,11,36,484731
0,73,271.9927673,-6.090872288,20.13402557,0.09575603157,0.323248744,0.8808880448,1.693451047,1.576300502,0.552955091,1905,5,22,8,34,20,650751,0,73,121.6253815,-13.15130424,70.20412445,0.213849932,0.8680903316,0.3162840307,0.9199030399,0.08201237768,0.3810483515,1905,5,25,20,11,36,524737
0,74,271.9953918,-6.084318161,20.13358307,0.09551379085,0.3230105639,0.8839616776,0.6878386736,1.541549563,0.4498110414,1905,5,22,8,34,20,690759,0,74,121.6257553,-13.15286446,70.20458221,0.2167568505,0.867256701,0.3181754947,1.19064486,-0.5435035825,0.4498110414,1905,5,25,20,11,36,604755
0,75,271.9984131,-6.077474117,20.13788223,0.09418144822,0.3256305456,0.8836070299,1.306676984,1.784805775,0.6560991406,1905,5,22,8,34,20,730760,0,75,121.6226501,-13.15657425,70.20494843,0.216272369,0.8684476018,0.3180572987,1.693451047,-0.7867597938,0.2091416121,1905,5,25,20,11,36,644759
0,76,272.0015869,-6.075806618,20.14029503,0.09829959273,0.323248744,0.8828977346,1.654773593,1.715304017,0.6560991406,1905,5,22,8,34,20,771791,0,76,121.6221237,-13.15841293,70.206604,0.2173624635,0.8635649085,0.3158111572,1.538741469,-0.4740018249,0.1059975624,1905,5,25,20,11,36,684772
0,77,272.0045166,-6.074749947,20.14121628,0.09660388529,0.3237251043,0.8833705783,1.229322195,1.472047806,0.587336421,1905,5,22,8,34,20,851796,0,77,121.6224213,-13.15832043,70.20856476,0.215061143,0.8721394539,0.3160476089,1.074612617,-0.300247401,0.3466669917,1905,5,25,20,11,36,724772
0,78,272.0109863,-6.062605381,20.14398766,0.09624052048,0.3244396448,0.8844345212,1.732128382,2.201816559,0.4154296815,1905,5,22,8,34,20,893796,0,78,121.6210861,-13.16019821,70.20932007,0.2169990987,0.8697575927,0.3187665939,1.500064015,-0.439250946,0.243522957,1905,5,25,20,11,36,765738
0,79,272.0133362,-6.059642315,20.14743996,0.09829959273,0.3239632845,0.8817155361,1.384031773,1.854307532,0.3466669917,1905,5,22,8,34,20,933802,0,79,121.6222916,-13.16010094,70.20779419,0.2145766616,0.8674948812,0.3208944798,1.113290071,-0.1612438262,0.3466669917,1905,5,25,20,11,36,805746
0,80,272.015686,-6.062712669,20.14670372,0.09781510383,0.3212241828,0.878996551,1.113290071,1.228791595,0.3122856617,1905,5,22,8,34,20,973808,0,80,121.6220856,-13.16069412,70.20819855,0.215061143,0.8733303547,0.3203034103,1.577418804,0.08201237768,0.3810483515,1905,5,25,20,11,36,845754
0,81,272.0194397,-6.060037136,20.14247513,0.0964827612,0.319914192,0.8818337321,0.8812256455,1.923809409,0.587336421,1905,5,22,8,34,21,18707,0,81,121.6224518,-13.16318893,70.20692444,0.2171202153,0.8633267283,0.3208944798,1.732128382,-0.05699117109,0.3810483515,1905,5,25,20,11,36,885756
0,82,272.0233459,-6.052195072,20.14309883,0.09720949829,0.3234869242,0.8850256205,1.113290071,1.715304017,1.034294009,1905,5,22,8,34,21,41205,0,82,121.6233749,-13.16427135,70.21057892,0.2174835801,0.868804872,0.3156929612,1.886837959,-0.2307455987,0.3466669917,1905,5,25,20,11,36,925768
0,83,272.0272522,-6.057594776,20.14283562,0.1001164243,0.3226532638,0.882779479,1.306676984,1.333044291,0.9999126196,1905,5,22,8,34,21,81218,0,83,121.6238251,-13.16721439,70.21498871,0.2179680765,0.86582762,0.3135650456,2.002870083,-0.439250946,0.7592431903,1905,5,25,20,11,36,965776
0,84,272.0302429,-6.059135914,20.14677048,0.09515041858,0.3257496357,0.8806515932,1.422709227,1.228791595,0.7592431903,1905,5,22,8,34,21,122069,0,84,121.6257553,-13.16711807,70.21442413,0.2154245079,0.8709485531,0.3205398321,1.074612617,-0.1612438262,0.552955091,1905,5,25,20,11,37,5777
0,85,272.0335693,-6.058134556,20.1494751,0.0970883742,0.3253923655,0.882779479,0.9199030399,1.645802259,0.8280058503,1905,5,22,8,34,21,162078,0,85,121.6272354,-13.16744709,70.21430969,0.2167568505,0.8691621423,0.3230223954,1.809483171,-0.6130053401,0.3466669917,1905,5,25,20,11,37,167179
0,86,272.0366516,-6.056239605,20.14823723,0.09587715566,0.3226532638,0.8846709728,1.384031773,1.750054955,0.4154296815,1905,5,22,8,34,21,202090,0,86,121.6271896,-13.17272758,70.21389771,0.2139710486,0.8704721928,0.3193576634,1.345354438,-0.300247401,0.552955091,1905,5,25,20,11,37,207185
0,87,272.039856,-6.051941395,20.15120888,0.0959982723,0.3255114555,0.8843163252,0.9972578883,1.333044291,0.9311499,1905,5,22,8,34,21,242096,0,87,121.6299667,-13.17218208,70.21455383,0.2153033912,0.8707103729,0.3223131001,2.002870083,0.01251060329,0.552955091,1905,5,25,20,11,37,247194
0,88,272.0429993,-6.054320335,20.14902687,0.0970883742,0.3242014647,0.8839616776,0.5718064308,1.472047806,0.587336421,1905,5,22,8,34,21,282105,0,88,121.630249,-13.17139053,70.21209717,0.2131231874,0.8673757911,0.3224313259,1.267999649,-0.05699117109,0.1403789073,1905,5,25,20,11,37,287195
0,89,272.0455627,-6.05624342,20.15143967,0.09684612602,0.3247969151,0.8811244369,1.267999649,1.541549563,0.4154296815,1905,5,22,8,34,21,322114,0,89,121.6322479,-13.17192078,70.21370697,0.2178469449,0.868804872,0.317702651,1.461386681,-0.02224028297,0.2779043019,1905,5,25,20,11,37,327206
0,90,272.0484009,-6.048951149,20.15407562,0.09587715566,0.3247969151,0.8824248314,0.726516068,1.645802259,0.6904804707,1905,5,22,8,34,21,362115,0,90,121.6328583,-13.17168045,70.21594238,0.213849932,0.8713058233,0.3167569041,1.500064015,-0.1612438262,0.518573761,1905,5,25,20,11,37,367207
0,91,272.0518188,-6.044291973,20.15564919,0.09466593713,0.324677825,0.8841980696,1.113290071,1.715304017,0.7592431903,1905,5,22,8,34,21,402127,0,91,121.6322937,-13.17355537,70.21606445,0.2153033912,0.8674948812,0.3206580579,1.770805836,-0.6477562785,0.6560991406,1905,5,25,20,11,37,487224
0,92,272.0542908,-6.04671669,20.16032219,0.1002375409,0.3250350952,0.8810062408,1.500064015,1.611051321,0.518573761,1905,5,22,8,34,21,442991,0,92,121.63517,-13.18013573,70.21292114,0.2159090042,0.8728539944,0.3185301423,1.461386681,-0.1264929324,1.412488818,1905,5,25,20,11,37,528142
0,93,272.0569763,-6.040997028,20.16747665,0.09611939639,0.3263450861,0.8776961565,1.035935283,1.854307532,0.7248618007,1905,5,22,8,34,21,482998,0,93,121.636261,-13.18055248,70.21154022,0.2137288004,0.8671376109,0.3243227899,2.196257114,-0.05699117109,0.6217178106,1905,5,25,20,11,37,569150
0,94,272.0596619,-6.034341812,20.16823959,0.09636164457,0.3230105639,0.8834887743,1.306676984,1.576300502,0.4841924012,1905,5,22,8,34,21,522999,0,94,121.6363297,-13.18021011,70.21129608,0.2137288004,0.8746403456,0.3175844252,0.726516068,0.2905176878,0.4154296815,1905,5,25,20,11,37,609159
0,95,272.062561,-6.032560349,20.17243385,0.09624052048,0.3265832961,0.8832523823,1.306676984,1.993311167,0.518573761,1905,5,22,8,34,21,563993,0,95,121.6332016,-13.18322659,70.21139526,0.2161512375,0.8673757911,0.3182937205,1.616096258,-0.3697491586,0.3122856617,1905,5,25,20,11,37,649163
0,96,272.0657959,-6.025690079,20.17557716,0.09587715566,0.3255114555,0.8831341267,0.9585804343,2.097563744,0.6904804707,1905,5,22,8,34,21,604023,0,96,121.6320114,-13.18467808,70.20977783,0.2146977782,0.8679712415,0.3203034103,1.151967406,-0.2654964924,0.4498110414,1905,5,25,20,11,37,689164
0,97,272.0681152,-6.020579815,20.18414116,0.09793622792,0.3274169266,0.8804151416,1.654773593,2.132314682,0.4498110414,1905,5,22,8,34,21,647069,0,97,121.6325989,-13.18271828,70.20898438,0.2115486115,0.8684476018,0.3230223954,1.770805836,-0.439250946,0.2779043019,1905,5,25,20,11,37,729958
0,98,272.0708313,-6.021520138,20.18642998,0.1010853946,0.3237251043,0.8807697892,1.151967406,1.784805775,0.518573761,1905,5,22,8,34,21,687082,0,98,121.6309891,-13.18402958,70.20587158,0.21142748,0.8634458184,0.3212491572,1.345354438,0.01251060329,0.552955091,1905,5,25,20,11,37,773909
0,99,272.0737915,-6.018065929,20.18725586,0.0970883742,0.3238441944,0.882543087,0.9585804343,1.715304017,0.587336421,1905,5,22,8,34,21,729997,0,99,121.6314774,-13.18442917,70.20679474,0.213244319,0.8726158142,0.315929383,0.8425482512,-0.02224028297,0.8623872399,1905,5,25,20,11,37,853926
0,100,272.0766907,-6.014736176,20.18970299,0.09684612602,0.3237251043,0.882543087,1.770805836,1.506798744,0.6217178106,1905,5,22,8,34,21,770011,0,100,121.630127,-13.18430138,70.20663452,0.2105796337,0.8678521514,0.3203034103,1.229322195,-0.3349982798,0.4498110414,1905,5,25,20,11,37,938876
0,101,272.0811157,-6.017323017,20.1870079,0.09769397974,0.3215814531,0.8804151416,0.8425482512,1.784805775,0.9999126196,1905,5,22,8,34,21,810017,0,101,121.6283722,-13.18556595,70.20594788,0.2113063633,0.8677330613,0.3230223954,2.699063301,0.2905176878,0.8967685699,1905,5,25,20,11,37,978882
0,102,272.0846252,-6.024936676,20.18564987,0.09926857054,0.3253923655,0.8823066354,0.7651934624,1.680553198,0.6560991406,1905,5,22,8,34,21,853999,0,102,121.6280289,-13.18335915,70.20418549,0.2102162689,0.8719012737,0.323258847,1.345354438,-0.1612438262,0.2779043019,1905,5,25,20,11,38,18906
0,103,272.0877991,-6.025782108,20.18702126,0.09987417608,0.3233678341,0.8806515932,1.151967406,1.923809409,0.6217178106,1905,5,22,8,34,21,894004,0,103,121.6256638,-13.18082619,70.20121765,0.2107007504,0.8695194125,0.319594115,1.345354438,-0.4045000374,0.243522957,1905,5,25,20,11,38,40009
0,104,272.091095,-6.025140762,20.19079018,0.09890519828,0.3257496357,0.8811244369,0.9585804343,2.028062105,0.7592431903,1905,5,22,8,34,21,934005,0,104,121.6234207,-13.18158627,70.20146179,0.2090050429,0.8699957728,0.3230223954,1.306676984,0.1515141577,0.4498110414,1905,5,25,20,11,38,80015
0,105,272.0936279,-6.029521465,20.19423485,0.09999530017,0.3255114555,0.8801787496,1.19064486,1.541549563,0.518573761,1905,5,22,8,34,21,974008,0,105,121.6198502,-13.18415451,70.20001221,0.2127598226,0.8698766828,0.3171115518,1.267999649,-0.02224028297,0.3122856617,1905,5,25,20,11,38,120023
0,106,272.0961609,-6.026353359,20.19742584,0.09951081127,0.3253923655,0.882543087,0.9972578883,1.263542533,0.7248618007,1905,5,22,8,34,22,14015,0,106,121.6130371,-13.16412258,70.20021057,0.2133654356,0.8679712415,0.3187665939,0.8812256455,-0.8562615514,0.6560991406,1905,5,25,20,11,38,160034
0,107,272.0985413,-6.022814751,20.2013588,0.0975728631,0.3250350952,0.8802969456,1.113290071,1.472047806,0.552955091,1905,5,22,8,34,22,81956,0,107,121.6130905,-13.16268253,70.19607544,0.2121542245,0.8701148629,0.323377043,1.538741469,-0.3349982798,-7.664186954,1905,5,25,20,11,38,200041
0,108,272.1036377,-6.020389557,20.20691681,0.09636164457,0.3255114555,0.8802969456,0.9585804343,1.333044291,0.552955091,1905,5,22,8,34,22,121966,0,108,121.6132507,-13.16148853,70.19661713,0.2103373855,0.8703530431,0.3281057179,1.732128382,-0.1264929324,0.4498110414,1905,5,25,20,11,38,240051
0,109,272.1064148,-6.026494026,20.20772552,0.1010853946,0.324677825,0.8820701838,1.113290071,1.541549563,0.518573761,1905,5,22,8,34,22,161973,0,109,121.6110306,-13.16343784,70.19784546,0.2094895393,0.8682094216,0.3185301423,1.577418804,0.04726149142,0.587336421,1905,5,25,20,11,38,281969
0,110,272.1090393,-6.029605865,20.20803261,0.09781510383,0.3243205547,0.882543087,1.577418804,1.750054955,0.243522957,1905,5,22,8,34,22,204293,0,110,121.608963,-13.1627264,70.19613647,0.2137288004,0.8724967241,0.317820847,1.538741469,-0.2654964924,0.6904804707,1905,5,25,20,11,38,321978
0,111,272.1117554,-6.031682014,20.21138,0.09624052048,0.3263450861,0.882543087,1.422709227,1.159289837,0.6217178106,1905,5,22,8,34,22,246025,0,111,121.6071854,-13.16098499,70.19335938,0.21142748,0.870233953,0.3224313259,1.19064486,-0.7867597938,0.2091416121,1905,5,25,20,11,38,362008
0,112,272.115509,-6.040279388,20.20971107,0.1013276428,0.3219387233,0.8798240423,1.384031773,1.333044291,0.8623872399,1905,5,22,8,34,22,288978,0,112,121.6070557,-13.15798759,70.1915741,0.2080360651,0.8678521514,0.3206580579,1.19064486,-0.1612438262,0.2091416121,1905,5,25,20,11,38,442016
0,113,272.1185608,-6.043968201,20.21563339,0.09890519828,0.3282505572,0.8797058463,0.9199030399,1.124539018,1.034294009,1905,5,22,8,34,22,369001,0,113,121.604538,-13.15690899,70.1919632,0.2090050429,0.8671376109,0.317820847,1.461386681,-0.3697491586,0.1403789073,1905,5,25,20,11,38,482048
0,114,272.1227112,-6.04468298,20.22056007,0.09890519828,0.3227723539,0.8821884394,0.9585804343,1.437296987,0.3466669917,1905,5,22,8,34,22,409006,0,114,121.6039276,-13.15694618,70.19275665,0.2109429985,0.8682094216,0.315929383,1.267999649,0.1515141577,0.552955091,1905,5,25,20,11,38,522061
0,115,272.1257629,-6.043394566,20.22233772,0.09684612602,0.3249160051,0.8812426925,1.113290071,1.611051321,0.6560991406,1905,5,22,8,34,22,449202,0,115,121.6050949,-13.15594769,70.19235229,0.2119119763,0.8705912828,0.3207762837,1.384031773,0.1167632714,0.552955091,1905,5,25,20,11,38,562061
0,116,272.1296082,-6.044451714,20.22519302,0.09672500938,0.3276551068,0.8823066354,0.6104838252,1.437296987,1.137438059,1905,5,22,8,34,22,489202,0,116,121.6046677,-13.15619469,70.19358063,0.2131231874,0.8728539944,0.3194758892,1.500064015,-0.439250946,0.6560991406,1905,5,25,20,11,38,606036
0,117,272.1317444,-6.040323734,20.23156738,0.09551379085,0.3281314671,0.8810062408,1.151967406,1.506798744,0.518573761,1905,5,22,8,34,22,529950,0,117,121.6056671,-13.1540184,70.19429779,0.2096106559,0.8719012737,0.3203034103,1.461386681,-0.2654964924,0.6560991406,1905,5,25,20,11,38,646049
0,118,272.1349792,-6.041694164,20.23019791,0.09866295755,0.3220578134,0.8799422979,1.151967406,1.367795229,0.6904804707,1905,5,22,8,34,22,569951,0,118,121.6081543,-13.15178299,70.19313049,0.2125175893,0.8721394539,0.3220766783,1.19064486,0.394770354,0.3122856617,1905,5,25,20,11,38,686049
0,119,272.1370239,-6.0315485,20.23550034,0.09478705376,0.3271787465,0.8824248314,1.19064486,1.333044291,0.552955091,1905,5,22,8,34,22,609965,0,119,121.6077652,-13.14515877,70.20205688,0.2079149485,0.9014358521,0.3199487627,2.273612022,-0.2654964924,0.002853517653,1905,5,25,20,11,38,771956
0,120,272.1391296,-6.025401115,20.2423954,0.0964827612,0.3283696473,0.8832523823,1.500064015,1.680553198,0.4498110414,1905,5,22,8,34,22,649968,0,120,121.6073456,-13.14515972,70.20254517,0.2123964578,0.8665421605,0.3219584525,2.389644146,-0.1959947199,0.3122856617,1905,5,25,20,11,38,817033
0,121,272.1413879,-6.024982929,20.24536133,0.09914744645,0.3263450861,0.8843163252,1.345354438,1.402546048,0.4498110414,1905,5,22,8,34,22,689971,0,121,121.608429,-13.14461327,70.20080566,0.212033093,0.8696385026,0.3207762837,0.9972578883,0.1167632714,0.587336421,1905,5,25,20,11,38,857035
0,122,272.1445313,-6.024359226,20.24820709,0.09684612602,0.3267023861,0.8817155361,0.9972578883,1.645802259,0.7592431903,1905,5,22,8,34,22,729983,0,122,121.6110077,-13.14087391,70.20217133,0.2081571966,0.873806715,0.3207762837,1.538741469,-0.1612438262,0.7592431903,1905,5,25,20,11,38,897076
0,123,272.1479187,-6.025164604,20.25020027,0.09563490748,0.3267023861,0.8797058463,0.6104838252,1.333044291,0.9311499,1905,5,22,8,34,22,769991,0,123,121.609726,-13.13982296,70.20041656,0.2109429985,0.870233953,0.3239681423,1.809483171,0.01251060329,0.07161621004,1905,5,25,20,11,38,937081
0,124,272.1505737,-6.023942471,20.25253487,0.09817846864,0.3250350952,0.8820701838,1.422709227,1.333044291,0.6217178106,1905,5,22,8,34,22,809999,0,124,121.6102371,-13.13816833,70.20176697,0.2117908448,0.8695194125,0.3164022565,1.461386681,0.08201237768,0.07161621004,1905,5,25,20,11,39,24087
0,125,272.1534119,-6.022377968,20.25435066,0.09672500938,0.3255114555,0.882661283,1.306676984,1.402546048,0.6217178106,1905,5,22,8,34,22,850009,0,125,121.6094055,-13.13324451,70.19759369,0.2090050429,0.868804872,0.3234952688,1.19064486,-0.1612438262,0.3810483515,1905,5,25,20,11,39,83935
0,126,272.1558533,-6.019272327,20.25840759,0.09733061492,0.326225996,0.8799422979,1.074612617,1.680553198,0.518573761,1905,5,22,8,34,22,891970,0,126,121.6087112,-13.13200092,70.19500732,0.2102162689,0.8684476018,0.3193576634,0.4170968533,-0.1959947199,0.243522957,1905,5,25,20,11,39,124172
0,127,272.1585693,-6.017564774,20.25925064,0.09515041858,0.3252732754,0.882661283,1.151967406,0.9507845044,0.6904804707,1905,5,22,8,34,22,934947,0,127,121.6073074,-13.13133717,70.19603729,0.2110641152,0.8716630936,0.3179390728,1.306676984,-0.3697491586,0.3122856617,1905,5,25,20,11,39,164182
0,128,272.1605225,-6.017316818,20.26887131,0.09672500938,0.331227839,0.8819519877,1.693451047,1.089788079,0.6560991406,1905,5,22,8,34,22,974952,0,128,121.6094666,-13.13081551,70.19721985,0.2127598226,0.870829463,0.3204216361,1.809483171,0.04726149142,0.7592431903,1905,5,25,20,11,39,204186
0,129,272.1636353,-6.011281013,20.27496147,0.09539266676,0.3292032778,0.8840798736,1.306676984,1.576300502,0.9311499,1905,5,22,8,34,23,15993,0,129,121.6112061,-13.12918282,70.19712067,0.2085205615,0.8714249134,0.3200669885,1.306676984,0.1167632714,0.9999126196,1905,5,25,20,11,39,244197
0,130,272.1661072,-6.008830547,20.27772713,0.09696725011,0.3255114555,0.8811244369,1.384031773,1.298293352,0.552955091,1905,5,22,8,34,23,43210,0,130,121.6114883,-13.12605667,70.1988678,0.2071882188,0.8720203638,0.3184119463,1.577418804,-0.1612438262,0.4498110414,1905,5,25,20,11,39,284208
0,131,272.1690369,-6.009026527,20.27870178,0.09672500938,0.3250350952,0.8786419034,0.8038708568,1.784805775,0.518573761,1905,5,22,8,34,23,83219,0,131,121.6095657,-13.12734413,70.19828796,0.2133654356,0.8661848903,0.3213673532,1.693451047,-0.8910124898,0.3466669917,1905,5,25,20,11,39,404223
0,132,272.1718445,-6.004395008,20.27767372,0.09272798151,0.3251541853,0.8838434219,0.9585804343,1.194040775,0.552955091,1905,5,22,8,34,23,123968,0,132,121.6214218,-13.11231709,70.197052,0.2069459707,0.8623739481,0.3238499165,1.693451047,-0.05699117109,0.3466669917,1905,5,25,20,11,39,544149
0,133,272.1748962,-6.000127792,20.27940559,0.09502930194,0.3256305456,0.8818337321,1.267999649,1.750054955,0.587336421,1905,5,22,8,34,23,163979,0,133,121.6194534,-13.11128426,70.19933319,0.2104585171,0.8770221472,0.317702651,1.538741469,-0.1959947199,0.243522957,1905,5,25,20,11,39,664178
0,134,272.1777039,-5.997317314,20.28581047,0.09309134632,0.329441458,0.8802969456,1.19064486,1.159289837,0.8967685699,1905,5,22,8,34,23,244000,0,134,121.6187668,-13.10804367,70.19995117,0.2111852467,0.8652321696,0.3193576634,1.035935283,-0.8215106726,0.1059975624,1905,5,25,20,11,39,784191
0,135,272.1838684,-5.993429661,20.29030228,0.09490817785,0.324677825,0.8824248314,1.19064486,1.298293352,0.9999126196,1905,5,22,8,34,23,284012,0,135,121.62323,-13.10155678,70.19600677,0.2125175893,0.8739258051,0.3184119463,0.9199030399,-0.1959947199,0.3122856617,1905,5,25,20,11,39,824204
0,136,272.2068481,-6.003264427,20.28788757,0.09660388529,0.3255114555,0.8819519877,1.113290071,1.298293352,9.457724571,1905,5,22,8,34,23,324016,0,136,121.6235275,-13.10149097,70.19882965,0.2143344134,0.8698766828,0.315101862,1.461386681,-0.05699117109,0.1747602522,1905,5,25,20,11,39,864204
0,137,272.2098694,-6.014739513,20.29037285,0.1037500799,0.3256305456,0.8776961565,1.654773593,1.472047806,0.6217178106,1905,5,22,8,34,23,365968,0,137,121.6287842,-13.0988884,70.19677734,0.2116697282,0.8732112646,0.319712311,0.9972578883,0.01251060329,0.518573761,1905,5,25,20,11,40,82001
0,138,272.2122192,-6.010094643,20.29917526,0.09357583523,0.3321805596,0.8799422979,0.6878386736,1.194040775,0.8967685699,1905,5,22,8,34,23,405972,0,138,121.6211166,-13.09625626,70.19963074,0.2157878727,0.8661848903,0.3172297776,1.422709227,0.08201237768,0.3810483515,1905,5,25,20,11,40,162008
0,139,272.2154846,-6.00703764,20.30036545,0.09345471114,0.3265832961,0.8812426925,1.074612617,1.402546048,0.7936245203,1905,5,22,8,34,23,445980,0,139,121.6219406,-13.09413147,70.20077515,0.2109429985,0.8766648769,0.3193576634,1.19064486,0.04726149142,0.3466669917,1905,5,25,20,11,40,205192
0,140,272.2183533,-6.003189564,20.30046082,0.09478705376,0.3261069059,0.8843163252,1.151967406,1.437296987,0.552955091,1905,5,22,8,34,23,485986,0,140,121.6227493,-13.0941,70.20298767,0.2107007504,0.8673757911,0.3213673532,1.964192748,0.04726149142,0.1403789073,1905,5,25,20,11,40,245205
0,141,272.2217407,-5.997030735,20.30318069,0.09490817785,0.3263450861,0.8821884394,1.422709227,1.611051321,0.8623872399,1905,5,22,8,34,23,525988,0,141,121.6228256,-13.0928793,70.20491791,0.2130020708,0.8696385026,0.3160476089,1.616096258,0.1515141577,0.3810483515,1905,5,25,20,11,40,325216
0,142,272.2246399,-5.996945858,20.30559731,0.0970883742,0.3276551068,0.8821884394,0.8425482512,1.576300502,0.6560991406,1905,5,22,8,34,23,565990,0,142,121.6222229,-13.0918169,70.20444489,0.2113063633,0.8679712415,0.3206580579,1.461386681,-0.439250946,0.07161621004,1905,5,25,20,11,40,405242
0,143,272.2275085,-5.990708828,20.30583763,0.09357583523,0.3242014647,0.8814790845,1.500064015,1.228791595,0.6217178106,1905,5,22,8,34,23,605990,0,143,121.6211014,-13.09292793,70.20285797,0.2142132968,0.8698766828,0.3188848197,0.9972578883,-0.2654964924,0.3810483515,1905,5,25,20,11,40,445255
0,144,272.2304077,-5.986149311,20.30448151,0.09393920004,0.3252732754,0.8846709728,1.074612617,1.159289837,0.6217178106,1905,5,22,8,34,23,646003,0,144,121.6223831,-13.09187412,70.20610046,0.2130020708,0.8701148629,0.3175844252,1.886837959,-0.3349982798,0.3122856617,1905,5,25,20,11,40,485259
0,145,272.2344055,-5.981614113,20.30355644,0.09272798151,0.3244396448,0.8807697892,1.035935283,1.854307532,0.8280058503,1905,5,22,8,34,23,687013,0,145,121.6204453,-13.09477425,70.20554352,0.2127598226,0.8624930382,0.319594115,1.809483171,-0.6477562785,0.6904804707,1905,5,25,20,11,40,525265
0,146,272.2362671,-5.978968143,20.31043434,0.09660388529,0.3288460076,0.8794693947,1.229322195,1.367795229,0.4841924012,1905,5,22,8,34,23,730066,0,146,121.6199112,-13.09433937,70.20652008,0.2105796337,0.8747594357,0.3184119463,1.074612617,-0.4740018249,0.7248618007,1905,5,25,20,11,40,568904
0,147,272.2385864,-5.982684612,20.30440521,0.09793622792,0.3211050928,0.8808880448,1.113290071,1.541549563,-0.03152783215,1905,5,22,8,34,23,770066,0,147,121.6169434,-13.09464741,70.20583344,0.2104585171,0.8741639853,0.3246774375,2.041547537,-0.4045000374,0.4154296815,1905,5,25,20,11,40,692036
0,148,272.2415161,-5.97547245,20.30399513,0.0922434926,0.3249160051,0.8824248314,1.19064486,1.541549563,0.518573761,1905,5,22,8,34,23,810067,0,148,121.5983734,-13.10018349,70.21286774,0.2143344134,0.8697575927,0.3180572987,1.693451047,-0.1264929324,0.3466669917,1905,5,25,20,11,40,732042
0,149,272.2457886,-5.967898369,20.30355453,0.09260685742,0.3249160051,0.8818337321,1.19064486,1.750054955,1.06867528,1905,5,22,8,34,23,850068,0,149,121.6007614,-13.09881783,70.21517181,0.2107007504,0.8677330613,0.3193576634,1.770805836,-0.2654964924,0.4498110414,1905,5,25,20,11,40,812056
0,150,272.2493286,-5.972462177,20.30169868,0.09406032413,0.3253923655,0.8800604939,0.9585804343,1.298293352,0.6904804707,1905,5,22,8,34,23,890076,0,150,121.5991898,-13.09899902,70.21683502,0.2127598226,0.8764266968,0.3206580579,1.809483171,-0.5087527037,0.4154296815,1905,5,25,20,11,40,852061
0,151,272.2523193,-5.97274971,20.30271912,0.09515041858,0.3268214762,0.8820701838,0.9199030399,1.228791595,0.7248618007,1905,5,22,8,34,23,933961,0,151,121.5983047,-13.09831905,70.21649933,0.2109429985,0.8707103729,0.3216038048,1.809483171,-0.02224028297,0.2091416121,1905,5,25,20,11,40,892069
0,152,272.2557373,-5.971944332,20.30547523,0.09345471114,0.3276551068,0.8810062408,1.229322195,1.506798744,0.8280058503,1905,5,22,8,34,23,973966,0,152,121.5976639,-13.0971508,70.21868134,0.2104585171,0.8705912828,0.3181754947,2.002870083,-0.09174205363,0.2091416121,1905,5,25,20,11,40,932081
0,153,272.2592163,-5.966190815,20.30564499,0.09236461669,0.3256305456,0.8808880448,0.8425482512,1.228791595,0.9655312896,1905,5,22,8,34,24,16968,0,153,121.5980148,-13.09662533,70.21946716,0.2115486115,0.8701148629,0.3174661994,1.267999649,-0.05699117109,0.4498110414,1905,5,25,20,11,40,972093
0,154,272.2617188,-5.959598541,20.30990601,0.09200125188,0.3283696473,0.8823066354,1.151967406,1.333044291,0.6217178106,1905,5,22,8,34,24,40010,0,154,121.5992126,-13.09554386,70.21856689,0.212033093,0.8678521514,0.3236134946,2.118902445,0.01251060329,0.2091416121,1905,5,25,20,11,41,13166
0,155,272.2646484,-5.952675343,20.30977058,0.09321247041,0.3247969151,0.8812426925,1.074612617,1.611051321,0.552955091,1905,5,22,8,34,24,80040,0,155,121.601387,-13.09167004,70.22019196,0.2086416781,0.8682094216,0.3166386783,1.229322195,-0.05699117109,0.1403789073,1905,5,25,20,11,41,40000
0,156,272.2683411,-5.950876713,20.3098793,0.09393920004,0.3249160051,0.8801787496,1.693451047,1.889058471,0.6904804707,1905,5,22,8,34,24,120045,0,156,121.6043167,-13.09023285,70.21898651,0.2123964578,0.8694003224,0.3213673532,1.151967406,0.04726149142,0.4841924012,1905,5,25,20,11,41,80010
0,157,272.2715759,-5.948441029,20.31024361,0.09345471114,0.3265832961,0.8839616776,1.461386681,1.819556713,0.518573761,1905,5,22,8,34,24,200058,0,157,121.6034317,-13.08850861,70.22123718,0.2090050429,0.8714249134,0.319594115,2.080224991,-0.5782544613,0.3466669917,1905,5,25,20,11,41,120022
0,158,272.2568054,-5.933889866,20.32360458,0.09563490748,0.3282505572,0.8805333972,1.848160625,1.506798744,-8.008000374,1905,5,22,8,34,24,242086,0,158,121.6045532,-13.08826733,70.22094727,0.213849932,0.8680903316,0.3213673532,1.577418804,-0.439250946,0.2779043019,1905,5,25,20,11,41,160028
0,159,272.2599487,-5.92725563,20.32156563,0.09115339816,0.3238441944,0.8811244369,0.9972578883,1.194040775,0.6904804707,1905,5,22,8,34,24,285090,0,159,121.6048431,-13.08698082,70.21980286,0.2121542245,0.8704721928,0.3192394674,0.7651934624,-0.1264929324,0.07161621004,1905,5,25,20,11,41,200028
0,160,272.2627563,-5.918435574,20.32419205,0.08885207772,0.3276551068,0.882543087,1.384031773,1.645802259,0.518573761,1905,5,22,8,34,24,326990,0,160,121.6062622,-13.08514214,70.21823883,0.2110641152,0.8715440035,0.3231406212,1.229322195,-0.3349982798,0.4154296815,1905,5,25,20,11,41,240039
0,161,272.2667236,-5.919234276,20.32048225,0.09418144822,0.3231296539,0.8817155361,1.384031773,1.645802259,0.7248618007,1905,5,22,8,34,24,368067,0,161,121.6085281,-13.08353424,70.21690369,0.212033093,0.870233953,0.323377043,1.577418804,0.04726149142,0.3466669917,1905,5,25,20,11,41,280048
0,162,272.2697449,-5.92073822,20.32409477,0.09660388529,0.3272978365,0.8798240423,1.19064486,1.402546048,0.7936245203,1905,5,22,8,34,24,408072,0,162,121.6070862,-13.07001114,70.2157135,0.181510359,0.8699957728,0.3210127056,1.151967406,-0.3349982798,0.1403789073,1905,5,25,20,11,41,320050
0,163,272.2729492,-5.916294575,20.32345009,0.09297022969,0.3255114555,0.8823066354,1.035935283,1.541549563,0.6560991406,1905,5,22,8,34,24,452999,0,163,121.6093674,-13.06765366,70.21390533,0.2102162689,0.8701148629,0.3221948743,1.074612617,0.01251060329,0.3810483515,1905,5,25,20,11,41,360050
0,164,272.2757263,-5.914672852,20.32378387,0.09127452224,0.3268214762,0.8824248314,1.19064486,1.124539018,0.552955091,1905,5,22,8,34,24,493000,0,164,121.6091461,-13.06671619,70.2118454,0.2102162689,0.8682094216,0.3226677477,1.384031773,-0.300247401,0.2779043019,1905,5,25,20,11,41,400052
0,165,272.2788086,-5.910039902,20.3241291,0.09139563888,0.3253923655,0.8821884394,1.848160625,1.958560228,0.3466669917,1905,5,22,8,34,24,533001,0,165,121.6098785,-13.06728745,70.21062469,0.2109429985,0.8680903316,0.3188848197,1.074612617,0.2210159302,0.7592431903,1905,5,25,20,11,41,480847
0,166,272.282196,-5.91190052,20.32659721,0.09466593713,0.3282505572,0.8823066354,1.229322195,1.472047806,0.8280058503,1905,5,22,8,34,24,577993,0,166,121.6129227,-13.06869793,70.20453644,0.2131231874,0.8729730844,0.3239681423,1.306676984,0.1167632714,0.7592431903,1905,5,25,20,11,41,520854
0,167,272.2853088,-5.910571575,20.3246212,0.09212237597,0.3247969151,0.8813608885,0.9972578883,1.194040775,0.6217178106,1905,5,22,8,34,24,617998,0,167,121.6125717,-13.06835651,70.20497131,0.2093684077,0.8705912828,0.317702651,1.267999649,0.01251060329,0.6217178106,1905,5,25,20,11,41,560863
0,168,272.2889404,-5.907541275,20.32363701,0.09163788706,0.3250350952,0.8818337321,1.538741469,1.333044291,0.8280058503,1905,5,22,8,34,24,658001,0,168,121.6107635,-13.06898117,70.20555115,0.212033093,0.8711867332,0.3162840307,1.113290071,0.01251060329,0.2091416121,1905,5,25,20,11,41,600873
0,169,272.2914429,-5.89767313,20.32635689,0.09030554444,0.3274169266,0.8817155361,0.9585804343,1.645802259,0.4841924012,1905,5,22,8,34,24,700984,0,169,121.6090088,-13.08139038,70.20292664,0.2404967546,0.8685666919,0.3234952688,0.9199030399,-0.6477562785,-0.06590917706,1905,5,25,20,11,41,640885
0,170,272.2952271,-5.898509502,20.32279015,0.09369695932,0.3236060143,0.8812426925,1.345354438,1.680553198,0.6560991406,1905,5,22,8,34,24,740989,0,170,121.6097641,-13.07931328,70.20274353,0.2077938318,0.8692812324,0.317820847,0.9972578883,0.08201237768,0.518573761,1905,5,25,20,11,41,720899
0,171,272.2975159,-5.895948887,20.32626534,0.0928491056,0.3282505572,0.8808880448,1.035935283,1.541549563,0.4154296815,1905,5,22,8,34,24,782984,0,171,121.6109619,-13.07435703,70.20231628,0.2096106559,0.8741639853,0.3199487627,1.035935283,-0.6130053401,0.243522957,1905,5,25,20,11,41,760912
0,172,272.3003235,-5.891501904,20.32569313,0.09236461669,0.3251541853,0.8821884394,1.422709227,1.367795229,0.518573761,1905,5,22,8,34,24,826986,0,172,121.611351,-13.07202053,70.20287323,0.2087628096,0.8670185208,0.3181754947,1.151967406,-0.6477562785,0.2779043019,1905,5,25,20,11,41,805728
0,173,272.3036804,-5.888734341,20.32398033,0.09212237597,0.3251541853,0.8837252259,1.19064486,1.472047806,0.6217178106,1905,5,22,8,34,24,866996,0,173,121.6155167,-13.06840515,70.20199585,0.2082783133,0.8663039804,0.3218402267,1.384031773,-0.1264929324,0.6217178106,1905,5,25,20,11,41,846839
0,174,272.3067017,-5.888068676,20.32458878,0.09248574078,0.3277741969,0.8820701838,0.8425482512,1.576300502,0.587336421,1905,5,22,8,34,24,911979,0,174,121.6177063,-13.06505489,70.20298004,0.207430467,0.8765457869,0.3203034103,1.345354438,0.255766809,0.6904804707,1905,5,25,20,11,41,888189
0,175,272.3106079,-5.893340588,20.32047653,0.09672500938,0.3237251043,0.8830159307,1.229322195,1.367795229,0.8280058503,1905,5,22,8,34,24,953056,0,175,121.6221161,-13.05958366,70.20344543,0.2079149485,0.8740448952,0.3210127056,1.19064486,0.01251060329,0.4154296815,1905,5,25,20,11,41,968195
0,176,272.3139648,-5.891606331,20.32386589,0.09115339816,0.3300369084,0.8811244369,0.726516068,1.715304017,0.7936245203,1905,5,22,8,34,24,993063,0,176,121.6265259,-13.05751324,70.20323181,0.2111852467,0.8726158142,0.3205398321,1.035935283,0.394770354,0.7936245203,1905,5,25,20,11,42,9704
0,177,272.317688,-5.889936447,20.3243885,0.0917590037,0.3271787465,0.882543087,1.267999649,1.645802259,0.8280058503,1905,5,22,8,34,25,33072,0,177,121.6268692,-13.05506229,70.20362091,0.2070671022,0.8716630936,0.3200669885,1.500064015,-0.05699117109,0.4841924012,1905,5,25,20,11,42,40013
0,178,272.3211975,-5.890174866,20.325037,0.09430256486,0.3261069059,0.8821884394,1.461386681,1.854307532,0.6217178106,1905,5,22,8,34,25,41046,0,178,121.6298676,-13.05263138,70.2029953,0.2110641152,0.868804872,0.3200669885,0.9972578883,0.04726149142,0.2779043019,1905,5,25,20,11,42,80020
0,179,272.3233337,-5.887449741,20.3279171,0.09466593713,0.3255114555,0.8799422979,1.732128382,1.506798744,0.3122856617,1905,5,22,8,34,25,81057,0,179,121.6317444,-13.04925632,70.2033844,0.2082783133,0.8690430522,0.3198305368,1.229322195,-0.4045000374,0.3122856617,1905,5,25,20,11,42,121003
0,180,272.3252869,-5.881909847,20.33064461,0.09200125188,0.3269405663,0.8813608885,1.345354438,1.472047806,0.243522957,1905,5,22,8,34,25,121057,0,180,121.6349335,-13.04714489,70.20555878,0.2104585171,0.8784512877,0.3208944798,1.654773593,0.1862650365,0.8967685699,1905,5,25,20,11,42,161005
0,181,272.3288269,-5.874044418,20.32797813,0.09163788706,0.3234869242,0.882779479,1.422709227,1.645802259,0.6560991406,1905,5,22,8,34,25,161070,0,181,121.6384354,-13.04409409,70.20578003,0.2088839263,0.870233953,0.3211309314,1.577418804,0.255766809,0.552955091,1905,5,25,20,11,42,201018
0,182,272.3323975,-5.87057209,20.32881737,0.09357583523,0.3267023861,0.882543087,0.9972578883,1.819556713,0.7936245203,1905,5,22,8,34,25,203914,0,182,121.6397476,-13.04346657,70.20792389,0.2117908448,0.8704721928,0.3188848197,1.732128382,-0.4045000374,0.552955091,1905,5,25,20,11,42,241038
0,183,272.3362732,-5.869390965,20.32984734,0.09466593713,0.3259878159,0.8802969456,1.113290071,2.062812805,0.8280058503,1905,5,22,8,34,25,243918,0,183,121.6404724,-13.03958321,70.20782471,0.2059769928,0.8717821836,0.3203034103,1.151967406,-0.300247401,0.3122856617,1905,5,25,20,11,42,286013
0,184,272.339325,-5.864840984,20.32992363,0.09357583523,0.3247969151,0.8805333972,1.577418804,1.541549563,0.6217178106,1905,5,22,8,34,25,285002,0,184,121.6406631,-13.03575134,70.20550537,0.2048868984,0.8659467101,0.3230223954,1.500064015,-0.2654964924,0.1403789073,1905,5,25,20,11,42,326997
0,185,272.3426208,-5.862566948,20.33050919,0.09393920004,0.3274169266,0.8839616776,0.8425482512,1.680553198,0.7248618007,1905,5,22,8,34,25,325014,0,185,121.6440659,-13.03206158,70.20400238,0.2057347596,0.867256701,0.3201851845,1.151967406,0.6380265355,0.587336421,1905,5,25,20,11,42,367004
0,186,272.3464966,-5.864294529,20.32532501,0.09418144822,0.3233678341,0.882661283,1.074612617,1.680553198,0.6560991406,1905,5,22,8,34,25,445045,0,186,121.6450424,-13.02773952,70.20541382,0.206219241,0.8732112646,0.3186483681,1.035935283,-0.5782544613,0.2779043019,1905,5,25,20,11,42,447292
0,187,272.3547668,-5.854001045,20.328825,0.09345471114,0.3251541853,0.8812426925,1.267999649,1.645802259,0.4154296815,1905,5,22,8,34,25,485046,0,187,121.6249771,-13.03369331,70.21142578,0.2108218819,0.8710676432,0.3203034103,1.113290071,-8.709961891,0.3122856617,1905,5,25,20,11,42,487298
0,188,272.3572693,-5.856010914,20.32744026,0.09272798151,0.3264641762,0.8819519877,1.461386681,1.541549563,0.2091416121,1905,5,22,8,34,25,525051,0,188,121.626297,-13.03091812,70.2130661,0.2083994299,0.8689239621,0.317702651,1.422709227,-0.300247401,0.2779043019,1905,5,25,20,11,42,528309
0,189,272.3577881,-5.854569435,20.3493557,0.09393920004,0.3545696735,0.8795876503,1.422709227,1.402546048,0.518573761,1905,5,22,8,34,25,565059,0,189,121.6294556,-13.02696323,70.21515656,0.2080360651,0.8713058233,0.3190030158,1.538741469,-0.1264929324,0.4154296815,1905,5,25,20,11,42,568313
0,190,272.3609924,-5.857402325,20.34766006,0.0933335945,0.3251541853,0.8805333972,1.500064015,1.472047806,0.518573761,1905,5,22,8,34,25,605072,0,190,121.6315079,-13.02625179,70.20814514,0.2058558762,0.8436766863,0.3218402267,1.500064015,-0.2307455987,0.3466669917,1905,5,25,20,11,42,608319
0,191,272.3627625,-5.858130455,20.35118675,0.0959982723,0.3295605481,0.8841980696,1.074612617,1.541549563,0.2091416121,1905,5,22,8,34,25,649895,0,191,121.6325607,-13.02274704,70.20825958,0.2070671022,0.8667803407,0.319712311,1.345354438,-0.5087527037,0.1403789073,1905,5,25,20,11,42,650287
0,192,272.3673706,-5.860607147,20.3463726,0.09575603157,0.3236060143,0.882779479,1.229322195,2.062812805,0.8623872399,1905,5,22,8,34,25,689904,0,192,121.6342545,-13.02156544,70.20980072,0.2092472911,0.8740448952,0.3180572987,1.384031773,0.2210159302,0.7936245203,1905,5,25,20,11,42,730298
0,193,272.3699951,-5.866707802,20.34819603,0.09696725011,0.3278932869,0.8810062408,1.422709227,1.645802259,0.3810483515,1905,5,22,8,34,25,729914,0,193,121.6314926,-13.0214901,70.21128082,0.2103373855,0.8698766828,0.3185301423,1.267999649,-0.5782544613,0.7592431903,1905,5,25,20,11,42,770306
0,194,272.3721924,-5.872722626,20.3472023,0.09672500938,0.3244396448,0.8776961565,1.461386681,1.541549563,0.1059975624,1905,5,22,8,34,25,773982,0,194,121.633316,-13.01830769,70.20857239,0.2060981244,0.8733303547,0.3236134946,0.9585804343,0.1862650365,0.6560991406,1905,5,25,20,11,42,810315
0,195,272.3755493,-5.876608372,20.343647,0.09624052048,0.3240823746,0.882661283,1.267999649,1.541549563,0.518573761,1905,5,22,8,34,25,854935,0,195,121.6333923,-13.01543045,70.21057892,0.207430467,0.8720203638,0.3204216361,2.041547537,-0.3697491586,0.2091416121,1905,5,25,20,11,42,850316
0,196,272.3826904,-5.888236523,20.33817291,0.09454481304,0.3268214762,0.8792330027,0.9585804343,1.055037141,0.587336421,1905,5,22,8,34,25,894948,0,196,121.6317978,-13.01352882,70.21414185,0.2077938318,0.873806715,0.3146289885,1.461386681,-0.5087527037,0.1747602522,1905,5,25,20,11,42,890321
0,197,272.3858643,-5.892393589,20.3369236,0.09624052048,0.3242014647,0.8817155361,1.693451047,1.055037141,0.6904804707,1905,5,22,8,34,25,934950,0,197,121.6316681,-13.01229954,70.21343231,0.2093684077,0.8711867332,0.3206580579,1.267999649,-0.1264929324,0.2779043019,1905,5,25,20,11,42,931266
0,198,272.3887939,-5.894865513,20.33668709,0.09551379085,0.3261069059,0.8807697892,0.726516068,1.020286322,0.7592431903,1905,5,22,8,34,25,978905,0,198,121.632164,-13.01055241,70.21095276,0.2091261744,0.8670185208,0.323258847,1.384031773,-0.300247401,0.1403789073,1905,5,25,20,11,42,971266
0,199,272.3914185,-5.896804333,20.33746147,0.09539266676,0.3272978365,0.8846709728,1.500064015,1.333044291,0.4498110414,1905,5,22,8,34,26,23917,0,199,121.6324539,-13.00725079,70.2105484,0.2071882188,0.8703530431,0.3205398321,1.19064486,-0.3697491586,0.07161621004,1905,5,25,20,11,43,11271
0,200,272.3948059,-5.896989822,20.33409882,0.09636164457,0.3231296539,0.8815973401,1.113290071,1.298293352,0.7248618007,1905,5,22,8,34,26,40001,0,200,121.633461,-13.00449848,70.20936584,0.2087628096,0.8717821836,0.3182937205,0.4944516718,0.255766809,0.03723486513,1905,5,25,20,11,43,40010
0,201,272.3968201,-5.894827843,20.34122467,0.09357583523,0.3307514787,0.8794693947,0.9199030399,1.228791595,0.6217178106,1905,5,22,8,34,26,80021,0,201,121.6340561,-13.00280285,70.21065521,0.2091261744,0.8726158142,0.3212491572,1.964192748,-0.1959947199,0.3810483515,1905,5,25,20,11,43,80017
0,202,272.3997192,-5.88924551,20.34347725,0.09454481304,0.3263450861,0.8806515932,1.151967406,1.298293352,0.7936245203,1905,5,22,8,34,26,125000,0,202,121.6359711,-13.00187397,70.20972443,0.2105796337,0.8673757911,0.3207762837,1.229322195,-0.2654964924,0.4841924012,1905,5,25,20,11,43,124740
0,203,272.4022217,-5.887972355,20.34514999,0.09466593713,0.3271787465,0.8818337321,0.9199030399,1.124539018,0.6217178106,1905,5,22,8,34,26,165009,0,203,121.6366653,-13.00017452,70.20927429,0.2082783133,0.8724967241,0.3198305368,1.113290071,0.1167632714,0.4498110414,1905,5,25,20,11,43,164748
0,204,272.4049683,-5.885429382,20.3465786,0.09309134632,0.3272978365,0.882661283,1.229322195,1.506798744,0.518573761,1905,5,22,8,34,26,205014,0,204,121.6388168,-12.99653149,70.21169281,0.2075515836,0.872258544,0.3185301423,1.500064015,-0.3349982798,0.3810483515,1905,5,25,20,11,43,204754
0,205,272.4075623,-5.881307125,20.34872437,0.09188012779,0.3277741969,0.8820701838,1.113290071,1.228791595,0.6217178106,1905,5,22,8,34,26,247001,0,205,121.6394119,-12.99266911,70.21222687,0.2075515836,0.872377634,0.3208944798,1.422709227,-0.3697491586,-0.06590917706,1905,5,25,20,11,43,248729
0,206,272.4111023,-5.881868362,20.34656143,0.09393920004,0.3253923655,0.8836070299,1.306676984,1.506798744,0.6560991406,1905,5,22,8,34,26,287013,0,206,121.6420517,-12.98920441,70.21111298,0.2096106559,0.8715440035,0.3231406212,1.384031773,0.1167632714,0.002853517653,1905,5,25,20,11,43,292749
0,207,272.4143677,-5.877905846,20.35041237,0.09442368895,0.3270596564,0.8798240423,1.422709227,1.715304017,0.8280058503,1905,5,22,8,34,26,329003,0,207,121.640419,-12.9894743,70.20957947,0.2110641152,0.8685666919,0.3200669885,0.9199030399,-0.6130053401,0.1059975624,1905,5,25,20,11,43,334731
0,208,272.4166565,-5.879520416,20.35729218,0.09345471114,0.3313469291,0.878996551,1.267999649,1.333044291,0.587336421,1905,5,22,8,34,26,369010,0,208,121.6403656,-12.98606491,70.21203613,0.2051291466,0.8728539944,0.3172297776,1.616096258,-0.1264929324,0.243522957,1905,5,25,20,11,43,376828
0,209,272.4193726,-5.875644684,20.35489845,0.09466593713,0.323248744,0.8799422979,1.19064486,1.367795229,0.4498110414,1905,5,22,8,34,26,409022,0,209,121.6404724,-12.98513603,70.21022034,0.2082783133,0.867256701,0.3224313259,1.616096258,-0.05699117109,0.3466669917,1905,5,25,20,11,43,418821
0,210,272.4228821,-5.866996765,20.35454178,0.09272798151,0.324677825,0.8810062408,1.267999649,1.437296987,0.8967685699,1905,5,22,8,34,26,449025,0,210,121.6420822,-12.97962666,70.21277618,0.2071882188,0.8785703778,0.3175844252,1.229322195,0.04726149142,0.6217178106,1905,5,25,20,11,43,461863
0,211,272.4255066,-5.865462303,20.35389137,0.0928491056,0.3258687258,0.8814790845,1.113290071,1.402546048,0.4154296815,1905,5,22,8,34,26,489025,0,211,121.6421509,-12.97827148,70.21269989,0.2073093355,0.8674948812,0.317702651,1.345354438,0.255766809,0.2779043019,1905,5,25,20,11,43,505718
0,212,272.428009,-5.860625744,20.35802269,0.09151676297,0.3282505572,0.8811244369,1.500064015,1.576300502,0.4841924012,1905,5,22,8,34,26,532002,0,212,121.6429214,-12.97741699,70.21560669,0.2113063633,0.872377634,0.3166386783,1.500064015,-0.300247401,0.3122856617,1905,5,25,20,11,43,545772
0,213,272.4309387,-5.860397816,20.35448647,0.09636164457,0.3236060143,0.882661283,1.113290071,1.645802259,0.3810483515,1905,5,22,8,34,26,574978,0,213,121.6416931,-12.97588062,70.21369934,0.2093684077,0.8741639853,0.3236134946,1.229322195,-0.2654964924,-0.03152783215,1905,5,25,20,11,43,585785
0,214,272.434021,-5.860206127,20.35351944,0.09430256486,0.3250350952,0.8799422979,1.19064486,1.680553198,0.518573761,1905,5,22,8,34,26,615078,0,214,121.6403122,-12.97291756,70.21050262,0.2047657818,0.8689239621,0.323377043,1.19064486,-0.1612438262,-0.03152783215,1905,5,25,20,11,43,626018
0,215,272.4359436,-5.856758595,20.35581589,0.09272798151,0.3269405663,0.8807697892,1.306676984,1.402546048,0.243522957,1905,5,22,8,34,26,655087,0,215,121.6409302,-12.96932411,70.20932007,0.2067037225,0.8696385026,0.3212491572,1.113290071,-0.2654964924,-0.03152783215,1905,5,25,20,11,43,669825
0,216,272.4389954,-5.858716011,20.35201645,0.09381808341,0.3238441944,0.8804151416,1.306676984,1.541549563,0.3810483515,1905,5,22,8,34,26,695095,0,216,121.6413727,-12.96809196,70.21001434,0.2096106559,0.8691621423,0.3179390728,1.267999649,-0.1264929324,0.1747602522,1905,5,25,20,11,43,749835
0,217,272.4411316,-5.854534626,20.35806274,0.09357583523,0.3286078274,0.8793511987,1.422709227,1.506798744,0.4841924012,1905,5,22,8,34,26,735106,0,217,121.6404266,-12.96651554,70.21159363,0.2088839263,0.8736876249,0.3186483681,1.267999649,-0.7520089149,0.2091416121,1905,5,25,20,11,43,793009
0,218,272.443512,-5.853953838,20.35825157,0.0928491056,0.3270596564,0.882661283,1.151967406,1.333044291,0.3466669917,1905,5,22,8,34,26,776058,0,218,121.6418381,-12.96602726,70.20986938,0.2108218819,0.8701148629,0.3190030158,0.5718064308,0.2210159302,0.3810483515,1905,5,25,20,11,43,833022
0,219,272.4462585,-5.855705738,20.35823822,0.09539266676,0.3253923655,0.8811244369,1.306676984,1.367795229,0.4841924012,1905,5,22,8,34,26,820975,0,219,121.6421127,-12.96440506,70.2115097,0.2109429985,0.870829463,0.3220766783,1.113290071,-0.05699117109,0.1403789073,1905,5,25,20,11,43,874734
0,220,272.448761,-5.856980324,20.35836792,0.09466593713,0.3263450861,0.8814790845,0.9972578883,1.333044291,0.4154296815,1905,5,22,8,34,26,860979,0,220,121.6411896,-12.96371841,70.21115112,0.2100951374,0.8698766828,0.3212491572,1.809483171,-0.05699117109,-0.1690532267,1905,5,25,20,11,43,914744
0,221,272.4513245,-5.856240749,20.36037827,0.09345471114,0.3276551068,0.8802969456,0.6104838252,0.6032756567,0.8967685699,1905,5,22,8,34,26,901996,0,221,121.6405716,-12.96332836,70.210495,0.2091261744,0.8690430522,0.3155747354,1.538741469,-0.1959947199,0.1403789073,1905,5,25,20,11,43,954756
0,222,272.4544373,-5.856038094,20.35936356,0.09406032413,0.3256305456,0.882661283,1.074612617,0.8812827468,0.8280058503,1905,5,22,8,34,26,942003,0,222,121.6403503,-12.96137142,70.21165466,0.2080360651,0.872258544,0.3160476089,1.074612617,0.04726149142,-0.2034345716,1905,5,25,20,11,43,995035
0,223,272.4578552,-5.857186317,20.358881,0.09393920004,0.3259878159,0.8814790845,1.422709227,1.854307532,0.552955091,1905,5,22,8,34,26,985136,0,223,121.6421356,-12.95807838,70.2130661,0.2083994299,0.8695194125,0.3164022565,0.9199030399,0.2905176878,0.03723486513,1905,5,25,20,11,44,35041
0,224,272.4604797,-5.860722065,20.35941315,0.09551379085,0.326225996,0.8806515932,1.229322195,0.9507845044,0.6217178106,1905,5,22,8,34,27,25149,0,224,121.6432419,-12.95435047,70.21296692,0.2094895393,0.8746403456,0.3198305368,1.074612617,-0.1959947199,-0.06590917706,1905,5,25,20,11,44,84687
0,225,272.4635925,-5.857193947,20.36073494,0.09091114998,0.3267023861,0.878878355,0.9972578883,1.506798744,0.6904804707,1905,5,22,8,34,27,40010,0,225,121.6445541,-12.95254421,70.21281433,0.2103373855,0.868685782,0.3229041696,0.9585804343,0.1167632714,0.3122856617,1905,5,25,20,11,44,124960
0,226,272.4667053,-5.85623455,20.36086464,0.09188012779,0.3265832961,0.8798240423,0.8425482512,1.228791595,0.7592431903,1905,5,22,8,34,27,80128,0,226,121.6465073,-12.95048046,70.21321106,0.2082783133,0.8692812324,0.3173479736,2.234934568,0.01251060329,-0.03152783215,1905,5,25,20,11,44,164973
0,227,272.4704895,-5.853500366,20.35885811,0.09151676297,0.3251541853,0.8811244369,0.726516068,1.055037141,1.034294009,1905,5,22,8,34,27,120140,0,227,121.6490479,-12.94757652,70.2156601,0.2128809541,0.8713058233,0.3136832714,1.616096258,0.01251060329,0.243522957,1905,5,25,20,11,44,204985
0,228,272.4726868,-5.852899075,20.35975838,0.09478705376,0.3268214762,0.8818337321,0.9972578883,1.437296987,0.3122856617,1905,5,22,8,34,27,160141,0,228,121.6475143,-12.94930077,70.2181015,0.2091261744,0.8692812324,0.3221948743,1.267999649,-0.1264929324,0.2779043019,1905,5,25,20,11,44,244993
0,229,272.4747009,-5.850181103,20.37267113,0.08933656663,0.3351578414,0.8779326081,2.041547537,1.263542533,0.6904804707,1905,5,22,8,34,27,200154,0,229,121.6456833,-12.94926167,70.21652985,0.2099740207,0.8698766828,0.3224313259,1.422709227,-0.6130053401,0.1747602522,1905,5,25,20,11,44,286832
0,230,272.4781799,-5.854846478,20.36865997,0.09454481304,0.3236060143,0.8780508041,0.6104838252,1.194040775,0.7248618007,1905,5,22,8,34,27,240154,0,230,121.6494293,-12.947155,70.21772003,0.2115486115,0.8721394539,0.3169933259,2.118902445,-0.1612438262,0.518573761,1905,5,25,20,11,44,326842
0,231,272.4805298,-5.847492695,20.3735466,0.088609837,0.3284887373,0.8802969456,1.693451047,1.228791595,0.552955091,1905,5,22,8,34,27,320161,0,231,121.6509552,-12.94817162,70.22021484,0.2116697282,0.870829463,0.3194758892,2.041547537,-0.5087527037,0.4841924012,1905,5,25,20,11,44,406849
0,232,272.4863281,-5.842911243,20.37581635,0.09188012779,0.3271787465,0.8815973401,1.113290071,1.402546048,0.6560991406,1905,5,22,8,34,27,361048,0,232,121.6551285,-12.94709873,70.22192383,0.2125175893,0.8698766828,0.319594115,1.654773593,0.01251060329,0.4841924012,1905,5,25,20,11,44,486860
0,233,272.4894104,-5.83741188,20.38133049,0.09030554444,0.3303942084,0.8792330027,0.8425482512,1.645802259,0.8623872399,1905,5,22,8,34,27,401049,0,233,121.650322,-12.94798756,70.22453308,0.2085205615,0.870233953,0.3156929612,1.654773593,-0.7520089149,0.552955091,1905,5,25,20,11,44,526861
0,234,272.4918213,-5.832891941,20.38414383,0.09091114998,0.3277741969,0.8806515932,1.345354438,1.437296987,0.4498110414,1905,5,22,8,34,27,441055,0,234,121.653656,-12.94488525,70.22583771,0.2083994299,0.8732112646,0.3200669885,1.500064015,0.1167632714,0.4498110414,1905,5,25,20,11,44,566866
0,235,272.4938965,-5.828437328,20.38685226,0.09188012779,0.3278932869,0.8807697892,1.151967406,1.472047806,0.3122856617,1905,5,22,8,34,27,482069,0,235,121.6535034,-12.94288731,70.22803497,0.2098529041,0.8748785257,0.3203034103,1.616096258,-0.9257633686,0.1059975624,1905,5,25,20,11,44,606876
0,236,272.4963074,-5.820803642,20.38896751,0.09091114998,0.3282505572,0.8824248314,0.8812256455,1.333044291,0.552955091,1905,5,22,8,34,27,524824,0,236,121.6558609,-12.94139004,70.22925568,0.2092472911,0.8684476018,0.3174661994,1.267999649,-0.1612438262,0.4841924012,1905,5,25,20,11,44,646877
0,237,272.4981995,-5.812787533,20.39344978,0.09127452224,0.3289650977,0.8820701838,1.384031773,1.437296987,0.3466669917,1905,5,22,8,34,27,564835,0,237,121.6364212,-12.94641209,70.23744202,0.2075515836,0.8707103729,0.3172297776,2.080224991,-8.814214706,0.3810483515,1905,5,25,20,11,44,686890
0,238,272.5014343,-5.811429501,20.39373779,0.09248574078,0.3271787465,0.882661283,1.422709227,1.541549563,0.6560991406,1905,5,22,8,34,27,604845,0,238,121.641304,-12.9416914,70.24026489,0.2083994299,0.8766648769,0.3221948743,2.15757966,0.1862650365,0.3810483515,1905,5,25,20,11,44,727746
0,239,272.5032349,-5.806128979,20.40049744,0.09103227407,0.3309896588,0.8807697892,1.267999649,1.367795229,0.4154296815,1905,5,22,8,34,27,645920,0,239,121.6445694,-12.93918037,70.24578094,0.2113063633,0.8677330613,0.3210127056,3.820707798,0.01251060329,-0.1346718818,1905,5,25,20,11,44,809988
0,240,272.5059814,-5.802531242,20.39818382,0.09079003334,0.3252732754,0.8823066354,1.577418804,1.541549563,0.3122856617,1905,5,22,8,34,27,685921,0,240,121.658577,-12.9373436,70.24317169,0.2088839263,0.8733303547,0.3247956634,2.196257114,1.437296987,1.550014138,1905,5,25,20,11,44,891923
0,241,272.5092163,-5.798059464,20.39672852,0.09236461669,0.3255114555,0.8817155361,1.035935283,1.611051321,0.6217178106,1905,5,22,8,34,27,725933,0,241,121.6693268,-12.93824959,70.22720337,0.2305647582,0.8740448952,0.3188848197,0.5331290364,-0.1264929324,0.8967685699,1905,5,25,20,11,44,931927
0,242,272.5124817,-5.791909695,20.39829636,0.08933656663,0.3268214762,0.8779326081,0.9199030399,1.611051321,0.7592431903,1905,5,22,8,34,27,765947,0,242,121.6675034,-12.93802834,70.22319794,0.2163934857,0.8846439719,0.3259778321,-0.2017414868,-0.8215106726,-0.4441040158,1905,5,25,20,11,44,971940
0,243,272.5151978,-5.786192894,20.40197754,0.09066890925,0.3286078274,0.8812426925,1.306676984,1.263542533,0.7248618007,1905,5,22,8,34,27,805960,0,243,121.6671066,-12.92867279,70.21863556,0.1901100278,0.8764266968,0.3138014674,-1.864869595,0.1862650365,0.1403789073,1905,5,25,20,11,45,11940
0,244,272.5183105,-5.777044296,20.40094566,0.08969993144,0.3255114555,0.8793511987,0.726516068,1.680553198,0.6217178106,1905,5,22,8,34,27,847850,0,244,121.6695099,-12.92294502,70.22695923,0.1995575279,0.8648748994,0.3089545965,3.008482456,0.7075283527,0.1747602522,1905,5,25,20,11,45,40012
0,245,272.5203857,-5.769710541,20.40548325,0.09054778516,0.329441458,0.8794693947,0.8425482512,1.611051321,0.4154296815,1905,5,22,8,34,27,887864,0,245,121.6610641,-12.90603828,70.21795654,0.1736374348,0.9148931503,0.3364991248,-3.334610701,-3.810086966,-0.2721972764,1905,5,25,20,11,45,84754
0,246,272.5229492,-5.763593197,20.40658569,0.09066890925,0.3263450861,0.8808880448,1.422709227,1.472047806,0.4498110414,1905,5,22,8,34,27,927865,0,246,121.6599655,-12.90786934,70.2221756,0.2171202153,0.8770221472,0.3224313259,2.621708393,-1.273272276,0.002853517653,1905,5,25,20,11,45,125806
0,247,272.5256653,-5.762850285,20.40897751,0.09066890925,0.3284887373,0.8801787496,1.345354438,1.472047806,0.518573761,1905,5,22,8,34,27,967872,0,247,121.6581573,-12.91208744,70.22251892,0.2219650894,0.8786894679,0.315101862,-0.4724832773,-1.273272276,0.1403789073,1905,5,25,20,11,45,170728
0,248,272.5275879,-5.749033451,20.41415787,0.08836758882,0.3307514787,0.8832523823,1.151967406,1.784805775,0.3122856617,1905,5,22,8,34,28,12830,0,248,121.6585922,-12.91184235,70.22332001,0.2104585171,0.8801185489,0.3246774375,1.848160625,-0.6130053401,0.7592431903,1905,5,25,20,11,45,210736
0,249,272.5304871,-5.746501446,20.41533852,0.09042666852,0.3268214762,0.8782872558,1.035935283,1.576300502,0.552955091,1905,5,22,8,34,28,40006,0,249,121.6555939,-12.91202927,70.22348022,0.2104585171,0.867256701,0.3191212416,1.577418804,-0.6825071573,-0.375341326,1905,5,25,20,11,45,254850
0,250,272.5334778,-5.744930267,20.41680908,0.09079003334,0.3271787465,0.8787600994,1.151967406,1.437296987,0.6560991406,1905,5,22,8,34,28,80014,0,250,121.656662,-12.90874577,70.22753906,0.2022222131,0.8705912828,0.3200669885,3.163192034,0.08201237768,0.6904804707,1905,5,25,20,11,45,294853
0,251,272.5361938,-5.744609833,20.4167614,0.09212237597,0.3275360167,0.8804151416,0.9585804343,1.472047806,0.518573761,1905,5,22,8,34,28,121243,0,251,121.6577377,-12.90790367,70.22840118,0.2116697282,0.8744021654,0.319712311,1.345354438,0.01251060329,0.1059975624,1905,5,25,20,11,45,422741
0,252,272.5381165,-5.742866516,20.41838837,0.09272798151,0.3272978365,0.8801787496,1.113290071,1.298293352,0.2779043019,1905,5,22,8,34,28,161245,0,252,121.6578827,-12.90833473,70.22174835,0.2081571966,0.8605875969,0.3269235492,0.9585804343,-0.1264929324,0.6560991406,1905,5,25,20,11,45,465784
0,253,272.5410461,-5.73743248,20.42142296,0.08933656663,0.3293223679,0.8807697892,0.8425482512,1.263542533,0.8280058503,1905,5,22,8,34,28,201251,0,253,121.6588516,-12.90530491,70.2195816,0.206219241,0.8748785257,0.3211309314,0.1850324869,-0.5087527037,0.4154296815,1905,5,25,20,11,45,505788
0,254,272.5440063,-5.737686157,20.42390442,0.09212237597,0.329441458,0.882661283,1.422709227,1.715304017,0.552955091,1905,5,22,8,34,28,241251,0,254,121.660759,-12.90265942,70.2240448,0.2075515836,0.8699957728,0.3127375245,1.500064015,0.01251060329,0.2091416121,1905,5,25,20,11,45,545798
0,255,272.5470886,-5.731824398,20.42696571,0.08945769072,0.3286078274,0.8812426925,1.345354438,1.263542533,0.8623872399,1905,5,22,8,34,28,283991,0,255,121.661087,-12.90100002,70.22283173,0.2080360651,0.8713058233,0.3193576634,0.6878386736,-0.1959947199,0.1747602522,1905,5,25,20,11,45,588049
0,256,272.5491028,-5.731355667,20.43105888,0.09030554444,0.3295605481,0.8779326081,1.306676984,1.715304017,0.1747602522,1905,5,22,8,34,28,324039,0,256,121.6617966,-12.90290451,70.22019958,0.212638706,0.8729730844,0.3203034103,0.2623872757,-0.1612438262,0.7592431903,1905,5,25,20,11,45,630244
0,257,272.5523376,-5.731219769,20.4258976,0.09357583523,0.3242014647,0.882779479,0.9585804343,1.228791595,0.6217178106,1905,5,22,8,34,28,364048,0,257,121.661087,-12.9035387,70.22316742,0.2085205615,0.8730921745,0.3171115518,2.080224991,0.01251060329,0.6560991406,1905,5,25,20,11,45,670255
0,258,272.5550537,-5.725916862,20.42758369,0.08969993144,0.3288460076,0.8824248314,0.9199030399,1.367795229,0.6217178106,1905,5,22,8,34,28,404060,0,258,121.6624222,-12.9030571,70.22151947,0.2027067095,0.843200326,0.313210398,1.577418804,0.01251060329,0.4841924012,1905,5,25,20,11,45,710267
0,259,272.557373,-5.716845036,20.43369865,0.08776198328,0.3314660192,0.882543087,1.422709227,1.854307532,0.4154296815,1905,5,22,8,34,28,444061,0,259,121.6646194,-12.90335751,70.22283173,0.212638706,0.8698766828,0.3158111572,0.8038708568,-0.1612438262,0.4498110414,1905,5,25,20,11,45,752727
0,260,272.5600586,-5.71288538,20.43385887,0.09272798151,0.326225996,0.8806515932,1.267999649,1.645802259,0.4498110414,1905,5,22,8,34,28,489004,0,260,121.6446762,-12.90643501,70.23018646,0.2063403577,0.8739258051,0.3162840307,1.19064486,-8.883716583,-0.1690532267,1905,5,25,20,11,45,792735
0,261,272.5631409,-5.70870018,20.43618584,0.09018442035,0.3289650977,0.8815973401,1.113290071,1.645802259,0.6904804707,1905,5,22,8,34,28,532002,0,261,121.64534,-12.90412998,70.23562622,0.2063403577,0.8769030571,0.3135650456,1.577418804,-0.5087527037,0.6217178106,1905,5,25,20,11,45,832778
0,262,272.5662842,-5.705467224,20.43856621,0.08969993144,0.3283696473,0.8799422979,1.113290071,1.194040775,0.8623872399,1905,5,22,8,34,28,572011,0,262,121.6449432,-12.90132618,70.23744202,0.2059769928,0.8777367473,0.3182937205,0.9199030399,-0.9257633686,0.4154296815,1905,5,25,20,11,45,873018
0,263,272.5689392,-5.70138979,20.44057465,0.09030554444,0.3290841877,0.8838434219,1.345354438,1.402546048,0.552955091,1905,5,22,8,34,28,612011,0,263,121.6477432,-12.89696693,70.24507141,0.203796804,0.8707103729,0.3109642863,2.15757966,-0.2654964924,0.518573761,1905,5,25,20,11,45,915754
0,264,272.5719299,-5.699128628,20.44186592,0.08897320181,0.3283696473,0.8798240423,1.151967406,1.506798744,0.6217178106,1905,5,22,8,34,28,652014,0,264,121.6479416,-12.88896465,70.24806213,0.1925324649,0.8764266968,0.3136832714,0.9585804343,-0.1612438262,0.4498110414,1905,5,25,20,11,45,957741
0,265,272.5750122,-5.700332165,20.44472694,0.09091114998,0.3297987282,0.8799422979,0.9585804343,1.263542533,0.7936245203,1905,5,22,8,34,28,694995,0,265,121.6491547,-12.90252113,70.25048065,0.2413446009,0.8705912828,0.3187665939,2.002870083,-0.05699117109,0.4841924012,1905,5,25,20,11,46,826
0,266,272.577179,-5.690166473,20.45168304,0.08776198328,0.3319423795,0.8797058463,1.074612617,1.784805775,0.4841924012,1905,5,22,8,34,28,740009,0,266,121.6524353,-12.89787674,70.25259399,0.2024644613,0.8744021654,0.3129739463,0.4170968533,0.255766809,0.7248618007,1905,5,25,20,11,46,40001
0,267,272.5794983,-5.687958717,20.45383453,0.08933656663,0.3287269175,0.8801787496,1.151967406,1.228791595,0.4498110414,1905,5,22,8,34,28,780015,0,267,121.6528397,-12.89421844,70.25067902,0.2024644613,0.8666612506,0.3198305368,0.9585804343,-0.3697491586,0.3122856617,1905,5,25,20,11,46,83897
0,268,272.5827637,-5.692057133,20.45116997,0.09345471114,0.3258687258,0.8812426925,1.229322195,1.298293352,0.6560991406,1905,5,22,8,34,28,823998,0,268,121.656723,-12.89305115,70.24971008,0.2093684077,0.8732112646,0.3171115518,0.2623872757,0.5685247779,0.7936245203,1905,5,25,20,11,46,123903
0,269,272.5860596,-5.685119152,20.45458984,0.08739861846,0.3299178183,0.8780508041,0.4557742476,1.402546048,0.9999126196,1905,5,22,8,34,28,864017,0,269,121.6610413,-12.88983059,70.25191498,0.2069459707,0.8713058233,0.3162840307,1.384031773,0.6032756567,0.518573761,1905,5,25,20,11,46,163952
0,270,272.5889893,-5.687213898,20.45835495,0.09163788706,0.329441458,0.8799422979,1.732128382,1.611051321,0.552955091,1905,5,22,8,34,28,904026,0,270,121.661293,-12.88691616,70.2550354,0.2059769928,0.8730921745,0.3173479736,1.809483171,-0.439250946,0.1747602522,1905,5,25,20,11,46,207029
0,271,272.5918884,-5.690006733,20.45968246,0.0928491056,0.3274169266,0.8793511987,1.654773593,1.750054955,0.4154296815,1905,5,22,8,34,28,944038,0,271,121.6626129,-12.88186169,70.26039124,0.2018588483,0.873806715,0.3138014674,2.002870083,-0.02224028297,0.243522957,1905,5,25,20,11,46,247037
0,272,272.5940552,-5.690286636,20.46642494,0.09042666852,0.3322996497,0.8785237074,1.384031773,1.472047806,0.4841924012,1905,5,22,8,34,28,984042,0,272,121.6623535,-12.88098049,70.26280975,0.2083994299,0.8724967241,0.315101862,1.074612617,-0.7172580361,0.3810483515,1905,5,25,20,11,46,287048
0,273,272.5960083,-5.694117069,20.46918106,0.0922434926,0.3300369084,0.8786419034,1.306676984,1.645802259,0.1059975624,1905,5,22,8,34,29,24043,0,273,121.6581421,-12.88576317,70.26576996,0.2167568505,0.8721394539,0.3199487627,2.196257114,-2.037791729,0.3122856617,1905,5,25,20,11,46,330929
0,274,272.5998535,-5.698207855,20.46486282,0.09200125188,0.3264641762,0.8834887743,1.306676984,1.611051321,0.6560991406,1905,5,22,8,34,29,43238,0,274,121.6592789,-12.88364315,70.26616669,0.2048868984,0.8698766828,0.3169933259,0.726516068,-0.8215106726,0.7936245203,1905,5,25,20,11,46,370930
0,275,272.6036682,-5.703546524,20.46246719,0.09188012779,0.3277741969,0.8807697892,1.113290071,1.715304017,0.6560991406,1905,5,22,8,34,29,83244,0,275,121.6620712,-12.88113022,70.26760864,0.2044024169,0.8798803687,0.3152200878,0.726516068,0.7422792315,1.034294009,1905,5,25,20,11,46,414921
0,276,272.6061707,-5.704153061,20.46666718,0.09272798151,0.3284887373,0.876277566,1.345354438,1.472047806,0.552955091,1905,5,22,8,34,29,123251,0,276,121.6705246,-12.87265396,70.27010345,0.1948337853,0.8776176572,0.3172297776,1.886837959,2.479823589,1.274963379,1905,5,25,20,11,46,457210
0,277,272.6087036,-5.701145649,20.47460175,0.09188012779,0.3320614696,0.8773415089,1.19064486,1.784805775,0.6560991406,1905,5,22,8,34,29,163251,0,277,121.6656799,-12.870718,70.26931,0.2060981244,0.8635649085,0.3139196932,0.03032289073,-1.933539033,-0.7191547751,1905,5,25,20,11,46,497221
0,278,272.6121826,-5.708306789,20.47434235,0.09587715566,0.3277741969,0.8811244369,1.19064486,1.263542533,0.8280058503,1905,5,22,8,34,29,203258,0,278,121.6693268,-12.86565971,70.26047516,0.205008015,0.8792849183,0.3218402267,-2.367675781,0.4642721117,0.3466669917,1905,5,25,20,11,46,537230
0,279,272.6152039,-5.703906059,20.47772598,0.08873096108,0.3305132985,0.8805333972,1.267999649,1.819556713,0.6217178106,1905,5,22,8,34,29,247948,0,279,121.6730804,-12.86875916,70.25144958,0.2157878727,0.8484402895,0.3164022565,-0.8592572212,1.124539018,-0.3409599662,1905,5,25,20,11,46,577233
0,280,272.618103,-5.703737736,20.47894478,0.0922434926,0.3287269175,0.8810062408,1.113290071,1.506798744,0.587336421,1905,5,22,8,34,29,287965,0,280,121.677742,-12.86470795,70.25940704,0.2051291466,0.8690430522,0.3059991598,2.234934568,1.437296987,0.2091416121,1905,5,25,20,11,46,662166
0,281,272.6208496,-5.703401089,20.4789505,0.09418144822,0.3276551068,0.8818337321,1.19064486,1.750054955,0.4154296815,1905,5,22,8,34,29,327979,0,281,121.675209,-12.85371971,70.27903748,0.216272369,0.868685782,0.3162840307,2.815095425,-2.385300636,-0.06590917706,1905,5,25,20,11,46,702172
0,282,272.6237793,-5.703732967,20.48072243,0.09103227407,0.3282505572,0.8784054518,1.422709227,1.645802259,0.518573761,1905,5,22,8,34,29,367981,0,282,121.673317,-12.86306095,70.28023529,0.2270522118,0.8701148629,0.3162840307,0.3784194589,-2.385300636,0.6217178106,1905,5,25,20,11,46,742172
0,283,272.62677,-5.707579136,20.48045158,0.09321247041,0.3284887373,0.8806515932,1.19064486,1.715304017,0.4498110414,1905,5,22,8,34,29,408953,0,283,121.6680756,-12.85874939,70.2751236,0.2030700743,0.8701148629,0.3218402267,-0.8592572212,-3.045567513,-0.5472480655,1905,5,25,20,11,46,786898
0,284,272.629425,-5.711279392,20.48433304,0.09454481304,0.3300369084,0.8782872558,1.113290071,1.367795229,0.6560991406,1905,5,22,8,34,29,452938,0,284,121.6680069,-12.8551693,70.28163147,0.2029489428,0.8668994308,0.30398947,0.9199030399,-0.7172580361,0.07161621004,1905,5,25,20,11,46,827179
0,285,272.6329651,-5.713325977,20.48398781,0.09188012779,0.3275360167,0.878996551,1.113290071,1.750054955,0.6560991406,1905,5,22,8,34,29,492945,0,285,121.6693497,-12.85213089,70.28920746,0.1996786594,0.8878594637,0.31143713,2.118902445,0.2905176878,1.412488818,1905,5,25,20,11,46,867890
0,286,272.6347351,-5.716018677,20.48826218,0.09212237597,0.3318232894,0.8818337321,1.461386681,1.263542533,0.2091416121,1905,5,22,8,34,29,533929,0,286,121.6781616,-12.84780979,70.29264832,0.2103373855,0.870233953,0.3188848197,1.461386681,-0.2654964924,0.6560991406,1905,5,25,20,11,46,907891
0,287,272.6383667,-5.716295719,20.48561668,0.09309134632,0.3250350952,0.8793511987,1.229322195,1.819556713,0.6217178106,1905,5,22,8,34,29,573938,0,287,121.6729736,-12.85089397,70.29416656,0.2203905135,0.8647558093,0.3083634973,-1.052644253,-3.254072666,-1.028586984,1905,5,25,20,11,46,951904
0,288,272.6412048,-5.720636368,20.48932648,0.0922434926,0.3286078274,0.8761593699,1.964192748,1.402546048,0.552955091,1905,5,22,8,34,29,617965,0,288,121.6724777,-12.84641361,70.29720306,0.2013743669,0.8920276165,0.3090727925,-0.5111606717,-0.2654964924,0.4841924012,1905,5,25,20,11,46,991912
0,289,272.6427917,-5.722849846,20.49266052,0.09515041858,0.3292032778,0.878878355,1.19064486,1.124539018,0.2779043019,1905,5,22,8,34,29,662926,0,289,121.6721573,-12.84596348,70.30197144,0.2059769928,0.8661848903,0.3147472143,2.312289476,-1.308023095,0.7248618007,1905,5,25,20,11,47,36894
0,290,272.6441345,-5.71980238,20.49767876,0.09042666852,0.3305132985,0.8781690598,1.229322195,1.089788079,0.243522957,1905,5,22,8,34,29,702932,0,290,121.6696548,-12.83868313,70.29888153,0.1919268519,0.8682094216,0.3171115518,-0.124386698,-1.064766884,0.1747602522,1905,5,25,20,11,47,40011
0,291,272.6477051,-5.722903728,20.48954964,0.0922434926,0.3236060143,0.8830159307,1.229322195,0.9507845044,0.6560991406,1905,5,22,8,34,29,747031,0,291,121.6674957,-12.83275032,70.29957581,0.196166113,0.8846439719,0.3110824823,-0.7045476437,-0.6130053401,0.2091416121,1905,5,25,20,11,47,84993
0,292,272.6506958,-5.72595787,20.48875427,0.09212237597,0.3284887373,0.8810062408,1.035935283,0.9160336256,0.7592431903,1905,5,22,8,34,29,789962,0,292,121.6689606,-12.83108997,70.30975342,0.2065826058,0.8774985075,0.3055262864,2.273612022,-0.2654964924,0.7248618007,1905,5,25,20,11,47,127012
0,293,272.6535645,-5.727213383,20.48897743,0.09163788706,0.3276551068,0.8807697892,1.577418804,1.159289837,0.587336421,1905,5,22,8,34,29,829969,0,293,121.6724014,-12.82532597,70.30989838,0.2024644613,0.8705912828,0.3108460605,-0.6658702493,-0.02224028297,0.1403789073,1905,5,25,20,11,47,170014
0,294,272.6567078,-5.727077007,20.48683929,0.09115339816,0.3264641762,0.8785237074,1.035935283,1.263542533,0.6560991406,1905,5,22,8,34,29,869972,0,294,121.6754913,-12.82245064,70.3165741,0.203796804,0.8850013018,0.3055262864,0.5331290364,0.08201237768,1.171819329,1905,5,25,20,11,47,212141
0,295,272.6590881,-5.725800991,20.49098778,0.0917590037,0.3295605481,0.8785237074,1.422709227,1.194040775,0.6217178106,1905,5,22,8,34,29,909976,0,295,121.6753922,-12.81070042,70.32213593,0.1951971501,0.8914321661,0.3123828769,-0.2404188961,-0.02224028297,-0.2034345716,1905,5,25,20,11,47,293999
0,296,272.6611023,-5.723966599,20.49439621,0.09127452224,0.3295605481,0.878878355,1.113290071,0.9507845044,0.518573761,1905,5,22,8,34,29,949979,0,296,121.6770172,-12.81053829,70.32919312,0.2121542245,0.8633267283,0.3061173856,1.925515413,-0.09174205363,-0.2034345716,1905,5,25,20,11,47,334011
0,297,272.6634216,-5.726741314,20.49452782,0.09236461669,0.3272978365,0.8793511987,1.693451047,1.333044291,0.243522957,1905,5,22,8,34,29,989991,0,297,121.6776886,-12.80416775,70.33498383,0.2018588483,0.8774985075,0.3108460605,1.577418804,0.04726149142,-0.4784853458,1905,5,25,20,11,47,374012
0,298,272.6663818,-5.725630283,20.49350548,0.09103227407,0.3263450861,0.8786419034,1.345354438,1.437296987,0.518573761,1905,5,22,8,34,30,29993,0,298,121.679512,-12.79557514,70.33712769,0.1935014427,0.8841676116,0.3064720333,-0.5885154605,0.7770301104,0.03723486513,1905,5,25,20,11,47,414263
0,299,272.6690369,-5.731594563,20.49373817,0.09248574078,0.3283696473,0.8784054518,1.422709227,0.8812827468,0.587336421,1905,5,22,8,34,30,40009,0,299,121.6813126,-12.80078125,70.34687042,0.2166357338,0.8694003224,0.3100185394,3.782030344,0.08201237768,1.103056669,1905,5,25,20,11,47,454264
0,300,272.6720276,-5.73225832,20.49584389,0.09115339816,0.3287269175,0.8799422979,2.118902445,1.750054955,0.4498110414,1905,5,22,8,34,30,80928,0,300,121.6789398,-12.80141258,70.34541321,0.2069459707,0.8720203638,0.3242045641,1.848160625,-1.794535518,0.6217178106,1905,5,25,20,11,47,494272
0,301,272.6741333,-5.729632378,20.50394058,0.08969993144,0.3315851092,0.8824248314,3.317901611,1.750054955,0.1747602522,1905,5,22,8,34,30,120939,0,301,121.680275,-12.8032217,70.35559082,0.2117908448,0.8753548861,0.3107278347,3.588643312,-0.1612438262,0.8967685699,1905,5,25,20,11,47,534273
0,302,272.6765442,-5.733962536,20.50461388,0.09672500938,0.3256305456,0.8830159307,3.472611189,1.923809409,-0.03152783215,1905,5,22,8,34,30,163017,0,302,121.6613083,-12.80368137,70.36492157,0.1994364113,0.8791658282,0.3044623435,0.03032289073,-8.431954384,-0.1002905294,1905,5,25,20,11,47,615104
0,303,272.6792603,-5.728932381,20.51093864,0.0917590037,0.3307514787,0.8867988586,3.66599822,2.723079681,0.002853517653,1905,5,22,8,34,30,203023,0,303,121.6603241,-12.79868317,70.37345123,0.2053713948,0.8778558373,0.3158111572,0.8038708568,-0.4045000374,-0.2378159165,1905,5,25,20,11,47,655105
0,304,272.6811218,-5.726642609,20.5446167,0.0895788148,0.3449233174,0.8669384122,7.456383228,1.611051321,0.8967685699,1905,5,22,8,34,30,243024,0,304,121.6603165,-12.79331398,70.37557983,0.2019799799,0.8736876249,0.3130921721,1.035935283,-0.05699117109,-0.4441040158,1905,5,25,20,11,47,695270
0,305,272.6824036,-5.734100342,20.53507423,0.1059302762,0.2653704882,0.8990934491,7.108286858,-0.5087527037,-0.4441040158,1905,5,22,8,34,30,285943,0,305,121.6650162,-12.78543568,70.38123322,0.2004053891,0.8825003505,0.3091910183,0.8812256455,0.7075283527,0.07161621004,1905,5,25,20,11,47,735276
0,306,272.6808472,-5.760810375,20.54640198,0.1362107545,0.3509969413,0.8667020202,-0.008354506455,-2.454802275,0.7248618007,1905,5,22,8,34,30,325950,0,306,121.671196,-12.78034496,70.38588715,0.2054925114,0.8776176572,0.3106096089,1.461386681,1.680553198,0.1747602522,1905,5,25,20,11,47,775283
0,307,272.6880493,-5.737164974,20.53050613,0.0678979829,0.331227839,0.8922368288,-5.268480301,0.6727774143,2.822124243,1905,5,22,8,34,30,368972,0,307,121.6791534,-12.77468586,70.39137268,0.2039179206,0.8755930662,0.3120282292,1.886837959,1.472047806,0.6217178106,1905,5,25,20,11,47,815283
0,308,272.6936646,-5.735432625,20.54631042,0.08982105553,0.3346814811,0.8732039332,3.472611189,1.333044291,2.306403875,1905,5,22,8,34,30,408972,0,308,121.6763763,-12.76882553,70.39071655,0.197377339,0.8717821836,0.312146455,-0.4338058829,-1.44702661,-0.2721972764,1905,5,25,20,11,47,895298
0,309,272.6987,-5.737412453,20.51821327,0.09720949829,0.2879977822,0.8869171143,-0.31777367,1.402546048,0.4841924012,1905,5,22,8,34,30,448980,0,309,121.6759644,-12.76330566,70.39829254,0.198588565,0.8763076067,0.3106096089,0.7651934624,-0.1264929324,-0.1002905294,1905,5,25,20,11,47,935300
0,310,272.7017822,-5.726377487,20.4981842,0.08776198328,0.3256305456,0.8838434219,-4.959061623,1.228791595,0.552955091,1905,5,22,8,34,30,488980,0,310,121.67453,-12.76148796,70.40594482,0.2091261744,0.8744021654,0.3090727925,2.699063301,-0.02224028297,-0.7535361648,1905,5,25,20,11,47,976982
0,311,272.7098389,-5.735356331,20.4858284,0.09696725011,0.3302751184,0.8843163252,-4.108158588,0.9160336256,3.097174883,1905,5,22,8,34,30,530961,0,311,121.6702194,-12.76451683,70.4087677,0.2137288004,0.8674948812,0.3119100034,1.461386681,-1.516528368,-0.409722656,1905,5,25,20,11,48,19981
0,312,272.7160034,-5.726695538,20.47594452,0.08255373687,0.3252732754,0.8782872558,-0.5498380661,1.680553198,1.618776917,1905,5,22,8,34,30,575034,0,312,121.668808,-12.7619133,70.41645813,0.2014954835,0.8716630936,0.3062355816,2.273612022,-0.5435035825,0.1747602522,1905,5,25,20,11,48,40019
0,313,272.7260132,-5.736721992,20.45857239,0.09890519828,0.3144359887,0.8786419034,0.5718064308,1.298293352,3.131556273,1905,5,22,8,34,30,615042,0,313,121.670639,-12.76006794,70.42604065,0.2064614892,0.8692812324,0.3091910183,1.461386681,-0.02224028297,0.552955091,1905,5,25,20,11,48,122332
0,314,272.7324219,-5.726569176,20.47298431,0.08497617394,0.3364678323,0.8814790845,2.853772879,1.333044291,2.684598684,1905,5,22,8,34,30,655043,0,314,121.66996,-12.75726414,70.42906189,0.2024644613,0.8789276481,0.3107278347,0.8038708568,-0.4045000374,0.3466669917,1905,5,25,20,11,48,163295
0,315,272.741272,-5.711881638,20.46907997,0.0875197351,0.3236060143,0.8892814517,3.511288643,2.097563744,2.650217533,1905,5,22,8,34,30,695937,0,315,121.6733704,-12.75686073,70.4332428,0.2077938318,0.8711867332,0.3136832714,2.196257114,0.08201237768,0.8280058503,1905,5,25,20,11,48,203305
0,316,272.7462463,-5.701972008,20.47719002,0.088609837,0.3315851092,0.8818337321,2.273612022,1.750054955,1.687539577,1905,5,22,8,34,30,735946,0,316,121.6718674,-12.75732899,70.44288635,0.2098529041,0.8730921745,0.3055262864,2.737740517,-0.8215106726,0.07161621004,1905,5,25,20,11,48,243307
0,317,272.7490845,-5.688200474,20.46342278,0.08582402766,0.3111014366,0.8834887743,3.588643312,2.514574528,-0.6847734451,1905,5,22,8,34,30,777028,0,317,121.651329,-12.76445961,70.45213318,0.2059769928,0.8753548861,0.3082452714,1.306676984,-8.918466568,0.7936245203,1905,5,25,20,11,48,284085
0,318,272.7521667,-5.686752319,20.45287323,0.08982105553,0.3213432729,0.8795876503,0.5331290364,1.506798744,0.2091416121,1905,5,22,8,34,30,817028,0,318,121.6523819,-12.76385784,70.45420074,0.206219241,0.8771412373,0.3123828769,0.8812256455,-0.2307455987,0.8280058503,1905,5,25,20,11,48,326019
0,319,272.7565308,-5.687997341,20.44190979,0.09091114998,0.3201523721,0.8811244369,1.19064486,1.715304017,0.587336421,1905,5,22,8,34,30,857030,0,319,121.6548996,-12.76255226,70.45863342,0.2060981244,0.8757121563,0.3146289885,2.273612022,-0.09174205363,0.8623872399,1905,5,25,20,11,48,446035
0,320,272.7605286,-5.681195259,20.42478943,0.08764085919,0.3175323606,0.8853802681,0.4944516718,1.402546048,0.4154296815,1905,5,22,8,34,30,897043,0,320,121.6455002,-12.77280617,70.46967316,0.2352885157,0.8224784732,0.3142743409,1.577418804,0.394770354,2.443929434,1905,5,25,20,11,48,569999
0,321,272.7654724,-5.675447464,20.42093658,0.0895788148,0.3242014647,0.8834887743,2.002870083,2.306069136,0.9311499,1905,5,22,8,34,30,937048,0,321,121.6446762,-12.7531929,70.4810257,0.2077938318,0.8636839986,0.3142743409,1.770805836,2.896834135,0.9999126196,1905,5,25,20,11,48,820003
0,322,272.7692566,-5.671699047,20.41295433,0.08982105553,0.3222959936,0.8837252259,1.267999649,1.437296987,0.6217178106,1905,5,22,8,34,30,977056,0,322,121.6480637,-12.74414349,70.48480988,0.1914423704,0.8926231265,0.3125011027,0.6491612792,0.3600194454,0.8967685699,1905,5,25,20,11,48,860017
0,323,272.7723083,-5.67298317,20.4089756,0.09236461669,0.3251541853,0.8834887743,0.9972578883,1.159289837,0.587336421,1905,5,22,8,34,31,17061,0,323,121.6465073,-12.74041367,70.48937225,0.1949549019,0.8713058233,0.3082452714,1.267999649,-0.09174205363,0.1059975624,1905,5,25,20,11,49,22333
0,324,272.7770691,-5.669401646,20.39869499,0.08764085919,0.3219387233,0.8831341267,0.726516068,1.437296987,0.9655312896,1905,5,22,8,34,31,40004,0,324,121.6487198,-12.72951508,70.4983902,0.1955605149,0.8747594357,0.3048169911,1.035935283,1.263542533,0.9655312896,1905,5,25,20,11,49,120749
0,325,272.7818298,-5.659641743,20.39297485,0.0848550573,0.3247969151,0.8862077594,0.9585804343,1.228791595,1.274963379,1905,5,22,8,34,31,82873,0,325,121.6580582,-12.71888733,70.50151062,0.196771726,0.8813094497,0.3107278347,0.5331290364,1.541549563,1.206200719,1905,5,25,20,11,49,200763
0,326,272.7872009,-5.65854311,20.38140106,0.09079003334,0.3203905523,0.8838434219,0.6491612792,1.402546048,1.240581989,1905,5,22,8,34,31,122884,0,326,121.6590271,-12.72281742,70.50036621,0.2153033912,0.8674948812,0.3281057179,3.201869249,0.04726149142,0.9999126196,1905,5,25,20,11,49,284024
0,327,272.7911987,-5.651861191,20.3740921,0.088004224,0.3230105639,0.8821884394,0.1850324869,1.298293352,0.9311499,1905,5,22,8,34,31,167863,0,327,121.6628265,-12.71890354,70.50772858,0.2008898705,0.8765457869,0.3134468198,-0.31777367,4.078364372,-0.03152783215,1905,5,25,20,11,49,364042
0,328,272.7937622,-5.647652626,20.37926674,0.08824647218,0.3288460076,0.8802969456,1.538741469,1.228791595,0.6904804707,1905,5,22,8,34,31,211891,0,328,121.6808853,-12.67345238,70.51504517,0.1876875907,0.8994113207,0.3303518593,5.406481266,4.703880787,1.103056669,1905,5,25,20,11,49,580402
0,329,272.7974548,-5.640332699,20.37642288,0.08642964065,0.3256305456,0.8847891688,1.267999649,1.124539018,0.9311499,1905,5,22,8,34,31,291898,0,329,121.693924,-12.671978,70.5322876,0.2104585171,0.8742830753,0.2944138944,0.4170968533,-2.281047821,-0.6847734451,1905,5,25,20,11,49,620403
0,330,272.8049927,-5.647214413,20.39725304,0.08388607949,0.3338478506,0.8833705783,2.892450094,1.298293352,1.550014138,1905,5,22,8,34,31,336890,0,330,121.6933517,-12.68452454,70.52217865,0.2310492396,0.8591585159,0.3276328444,-0.93661201,-0.1264929324,0.07161621004,1905,5,25,20,11,49,660413
0,331,272.8101196,-5.630361557,20.3955574,0.08388607949,0.3227723539,0.8793511987,2.080224991,0.9855354428,1.653158188,1905,5,22,8,34,31,376897,0,331,121.6967087,-12.67021179,70.51573181,0.1842961758,0.8774985075,0.3208944798,-2.561062813,-0.8215106726,-0.4441040158,1905,5,25,20,11,49,700426
0,332,272.8120728,-5.6172328,20.40114784,0.08679300547,0.3276551068,0.8838434219,3.008482456,1.055037141,0.4154296815,1905,5,22,8,34,31,418106,0,332,121.6954803,-12.66460037,70.5144043,0.1999209076,0.8821430802,0.3029255271,2.892450094,-0.5782544613,0.552955091,1905,5,25,20,11,49,742665
0,333,272.814209,-5.5989995,20.39001465,0.08170588315,0.318246901,0.8846709728,1.035935283,1.611051321,-0.2378159165,1905,5,22,8,34,31,458106,0,333,121.6942291,-12.66387558,70.52294922,0.203191191,0.8777367473,0.3078906238,0.6104838252,-0.2307455987,0.1403789073,1905,5,25,20,11,49,782677
0,334,272.8164063,-5.59131813,20.3889122,0.08449169248,0.3244396448,0.8795876503,1.809483171,1.680553198,0.03723486513,1905,5,22,8,34,31,498110,0,334,121.6972427,-12.66434097,70.52128601,0.2107007504,0.8692812324,0.3155747354,0.6491612792,-0.2654964924,1.343726039,1905,5,25,20,11,49,822680
0,335,272.8199463,-5.581249237,20.37672806,0.08703525364,0.3175323606,0.8879810572,2.466999054,1.367795229,0.2779043019,1905,5,22,8,34,31,538113,0,335,121.7001495,-12.66022778,70.52568054,0.1971350908,0.8822621703,0.3081270754,1.500064015,-1.412275791,-0.2034345716,1905,5,25,20,11,49,863935
0,336,272.8227539,-5.573448658,20.35273361,0.08982105553,0.3024078012,0.8890450001,0.8812256455,1.645802259,-0.4784853458,1905,5,22,8,34,31,578118,0,336,121.6980972,-12.65674686,70.53009033,0.2012532353,0.8729730844,0.3101367652,1.229322195,-0.7172580361,0.552955091,1905,5,25,20,11,49,903946
0,337,272.8258972,-5.560769081,20.35547256,0.08642964065,0.3274169266,0.8841980696,1.616096258,1.541549563,0.7936245203,1905,5,22,8,34,31,621866,0,337,121.6999435,-12.65380287,70.5328064,0.2029489428,0.8765457869,0.3134468198,1.422709227,-0.300247401,0.1747602522,1905,5,25,20,11,49,948686
0,338,272.8309326,-5.554742813,20.34265327,0.08691412956,0.3172941804,0.8846709728,1.577418804,1.020286322,1.137438059,1905,5,22,8,34,31,661878,0,338,121.7015915,-12.65056801,70.53606415,0.2029489428,0.873806715,0.31143713,1.267999649,0.01251060329,0.1059975624,1905,5,25,20,11,49,988708
0,339,272.8337708,-5.565059185,20.33959579,0.09733061492,0.3239632845,0.8856167197,1.19064486,-0.1959947199,1.06867528,1905,5,22,8,34,31,706862,0,339,121.705307,-12.64643288,70.54097748,0.2040390521,0.8745212555,0.3085999489,1.151967406,-0.1612438262,0.1403789073,1905,5,25,20,11,50,32673
0,340,272.8393555,-5.559680462,20.32858276,0.08606627584,0.3203905523,0.8854984641,0.5718064308,-1.030016065,2.340785265,1905,5,22,8,34,31,748874,0,340,121.7047272,-12.64410019,70.54396057,0.2019799799,0.8764266968,0.3093092442,-0.124386698,-0.09174205363,0.3810483515,1905,5,25,20,11,50,40003
0,341,272.8509521,-5.54073,20.33710098,0.07237949222,0.3261069059,0.878996551,4.01409483,0.3252685666,5.022530556,1905,5,22,8,34,31,788885,0,341,121.7076797,-12.63812542,70.54820251,0.1997997761,0.8790467381,0.3069449067,1.461386681,0.08201237768,0.4841924012,1905,5,25,20,11,50,83069
0,342,272.8641357,-5.519521236,20.34061241,0.07988905907,0.3218196332,0.8928279281,6.798867702,2.445072651,4.472428799,1905,5,22,8,34,31,828897,0,342,121.7061005,-12.63612652,70.55188751,0.2018588483,0.8826194406,0.3112007082,1.538741469,-0.2654964924,0.243522957,1905,5,25,20,11,50,123078
0,343,272.8714294,-5.51317358,20.31942368,0.08388607949,0.2884741426,0.8849074244,2.621708393,1.333044291,1.584395528,1905,5,22,8,34,31,868904,0,343,121.7072144,-12.63340855,70.55956268,0.2013743669,0.8719012737,0.3036348224,2.041547537,-0.1612438262,0.3122856617,1905,5,25,20,11,50,203089
0,344,272.8743896,-5.498023987,20.32352066,0.08158476651,0.329441458,0.8837252259,0.726516068,0.6380265355,1.206200719,1905,5,22,8,34,31,908941,0,344,121.7053604,-12.63239288,70.5645752,0.206219241,0.8765457869,0.3071813285,1.267999649,-0.9605142474,-0.1690532267,1905,5,25,20,11,50,247100
0,345,272.8807373,-5.479111671,20.34582329,0.07613427192,0.3321805596,0.8886903524,8.65538311,0.2905176878,2.822124243,1905,5,22,8,34,31,948949,0,345,121.70858,-12.62585545,70.57208252,0.2033123076,0.8719012737,0.3087181449,0.6104838252,-0.5782544613,0.07161621004,1905,5,25,20,11,50,287105
0,346,272.8858337,-5.470535278,20.33884621,0.08158476651,0.2701341212,0.8985023499,8.345963478,1.298293352,0.6560991406,1905,5,22,8,34,31,988953,0,346,121.7105331,-12.62307072,70.57450867,0.2033123076,0.8671376109,0.3115553558,0.9585804343,0.08201237768,0.07161621004,1905,5,25,20,11,50,327116
0,347,272.8764343,-5.432836056,20.32352829,0.04270461202,0.3033605218,0.8980295062,-1.052644253,3.904609919,-6.185789108,1905,5,22,8,34,32,28957,0,347,121.7114944,-12.61911583,70.58285522,0.1999209076,0.8783321977,0.3044623435,0.2623872757,0.255766809,0.3122856617,1905,5,25,20,11,50,450064
0,348,272.8699036,-5.437373161,20.3155365,0.1070203707,0.3245587349,0.8779326081,-3.334610701,4.912385941,-4.741772175,1905,5,22,8,34,32,40010,0,348,121.711647,-12.61454773,70.58815002,0.2007687539,0.8827385306,0.311318934,0.9199030399,-0.8910124898,0.1403789073,1905,5,25,20,11,50,530082
0,349,272.8640137,-5.454930305,20.30491638,0.1175579801,0.2962150574,0.8821884394,3.317901611,-0.6825071573,-3.160230398,1905,5,22,8,34,32,80021,0,349,121.7142715,-12.60842991,70.59259796,0.203191191,0.8755930662,0.3068266809,0.9972578883,-0.1612438262,-0.1690532267,1905,5,25,20,11,50,650105
0,350,272.8586426,-5.447851658,20.26904678,0.08073691279,0.2937141359,0.8950740695,-4.146836281,-0.9257633686,-3.160230398,1905,5,22,8,34,32,120031,0,350,121.7202225,-12.59939766,70.60553741,0.2065826058,0.8761885166,0.3081270754,1.306676984,-0.05699117109,0.03723486513,1905,5,25,20,11,50,774991
0,351,272.8562012,-5.428526402,20.27238464,0.07455968857,0.328012377,0.8807697892,-0.008354506455,0.2210159302,-1.028586984,1905,5,22,8,34,32,160040,0,351,121.7228546,-12.59556198,70.61640167,0.2039179206,0.8741639853,0.3061173856,0.9585804343,-0.3697491586,-0.1002905294,1905,5,25,20,11,50,814995
0,352,272.8580017,-5.404131413,20.28317833,0.06596003473,0.3342051208,0.8892814517,2.544353485,1.472047806,0.4498110414,1905,5,22,8,34,32,200042,0,352,121.7245941,-12.59346581,70.62064362,0.203191191,0.8709485531,0.3065902591,1.345354438,-0.2307455987,0.243522957,1905,5,25,20,11,50,859062
0,353,272.8641968,-5.406515121,20.26585579,0.09345471114,0.2988350689,0.8914093375,3.782030344,2.028062105,0.8967685699,1905,5,22,8,34,32,240044,0,353,121.723259,-12.59083939,70.6266098,0.203796804,0.8875021935,0.3055262864,0.9585804343,-0.7172580361,-0.03152783215,1905,5,25,20,11,50,939996
0,354,272.8648682,-5.407373905,20.23784447,0.09442368895,0.2906177938,0.8846709728,-0.4724832773,0.9855354428,-1.200493693,1905,5,22,8,34,32,280048,0,354,121.7232895,-12.58875179,70.63745117,0.2040390521,0.8734494448,0.305880934,1.577418804,-0.5435035825,0.1403789073,1905,5,25,20,11,50,980270
0,355,272.8651428,-5.394577026,20.2427578,0.07964681089,0.3301559985,0.8811244369,-0.6271928549,0.7422792315,0.1059975624,1905,5,22,8,34,32,320053,0,355,121.7230301,-12.58861446,70.64289856,0.2063403577,0.8774985075,0.3051716387,1.422709227,-0.4045000374,0.243522957,1905,5,25,20,11,51,20278
0,356,272.8682861,-5.387508392,20.22418404,0.08255373687,0.3108632565,0.8836070299,1.732128382,1.541549563,-0.1346718818,1905,5,22,8,34,32,360062,0,356,121.7252121,-12.58391476,70.6474762,0.1996786594,0.880237639,0.3070631027,0.9972578883,-0.1612438262,0.3122856617,1905,5,25,20,11,51,80010
0,357,272.8697815,-5.393995285,20.19861031,0.09357583523,0.2980014384,0.8866806626,-0.08570930362,0.08201237768,-0.4441040158,1905,5,22,8,34,32,400070,0,357,121.7267914,-12.58161545,70.66164398,0.2065826058,0.8710676432,0.3004429638,1.616096258,0.04726149142,0.2091416121,1905,5,25,20,11,51,122783
0,358,272.873291,-5.37703228,20.19449806,0.07431744784,0.3236060143,0.8866806626,0.2237098813,0.8117809892,1.034294009,1905,5,22,8,34,32,440071,0,358,121.7266922,-12.58052921,70.66966248,0.2046446502,0.8784512877,0.3041076958,2.196257114,-0.4740018249,0.243522957,1905,5,25,20,11,51,162783
0,359,272.8738403,-5.375967026,20.20930672,0.08715637028,0.3353960216,0.8857349157,1.848160625,0.5685247779,0.4498110414,1905,5,22,8,34,32,483898,0,359,121.7269669,-12.57846165,70.6758194,0.2024644613,0.878808558,0.3044623435,1.654773593,-0.1612438262,0.243522957,1905,5,25,20,11,51,202790
0,360,272.8770142,-5.375846863,20.18974113,0.088609837,0.3065759838,0.8872717619,1.693451047,1.089788079,0.002853517653,1905,5,22,8,34,32,523902,0,360,121.7267075,-12.57563114,70.67897797,0.2021010965,0.8763076067,0.3108460605,1.693451047,-0.5782544613,-0.06590917706,1905,5,25,20,11,51,245000
0,361,272.8794861,-5.360261917,20.20219231,0.07552866638,0.3361105621,0.8832523823,0.6104838252,1.437296987,1.034294009,1905,5,22,8,34,32,563906,0,361,121.7276306,-12.57191372,70.68556976,0.2018588483,0.8744021654,0.3077724278,2.312289476,-0.6477562785,-0.1002905294,1905,5,25,20,11,51,285011
0,362,272.8791199,-5.356603622,20.21535301,0.08812534809,0.328012377,0.8844345212,4.01409483,1.228791595,-0.4784853458,1905,5,22,8,34,32,607887,0,362,121.7288132,-12.57104969,70.69136047,0.2054925114,0.8797612786,0.3048169911,1.577418804,0.08201237768,0.3466669917,1905,5,25,20,11,51,326790
0,363,272.8815002,-5.345176697,20.19527817,0.07928344607,0.3013359904,0.8929461241,2.312289476,1.194040775,-0.4441040158,1905,5,22,8,34,32,647966,0,363,121.7307281,-12.56933594,70.69558716,0.2036756873,0.8713058233,0.3064720333,1.577418804,-0.1612438262,0.243522957,1905,5,25,20,11,51,369719
0,364,272.8813477,-5.333846569,20.21024132,0.08509729803,0.3295605481,0.8843163252,3.820707798,1.993311167,-0.5472480655,1905,5,22,8,34,32,687976,0,364,121.7533035,-12.56090355,70.69268036,0.2044024169,0.8784512877,0.3100185394,1.035935283,8.839236259,0.3810483515,1905,5,25,20,11,51,412730
0,365,272.8825073,-5.334877968,20.18488312,0.088609837,0.2990732491,0.8872717619,0.2623872757,0.8812827468,-0.8910615444,1905,5,22,8,34,32,731999,0,365,121.7553253,-12.5596962,70.6973877,0.2034334391,0.8765457869,0.3077724278,1.732128382,-0.1612438262,0.6560991406,1905,5,25,20,11,51,455020
0,366,272.8864746,-5.325888634,20.17130852,0.08025242388,0.313483268,0.8854984641,1.809483171,1.159289837,0.552955091,1905,5,22,8,34,32,773927,0,366,121.7580948,-12.55630684,70.70265961,0.2028278261,0.8720203638,0.3106096089,1.693451047,-0.3697491586,0.1747602522,1905,5,25,20,11,51,495764
0,367,272.8868713,-5.301064014,20.19405746,0.07165276259,0.3284887373,0.8853802681,8.036543846,2.514574528,-0.6160107255,1905,5,22,8,34,32,813933,0,367,121.7599106,-12.55426693,70.7052536,0.203796804,0.8826194406,0.309545666,1.886837959,-0.300247401,0.2091416121,1905,5,25,20,11,51,658786
0,368,272.8930054,-5.310589314,20.17133904,0.09842071682,0.2849014103,0.8856167197,1.422709227,0.3600194454,1.515632868,1905,5,22,8,34,32,853946,0,368,121.7597733,-12.54958439,70.71733093,0.2014954835,0.8769030571,0.3127375245,1.654773593,-0.6477562785,0.1403789073,1905,5,25,20,11,51,701688
0,369,272.8969421,-5.312103748,20.15878868,0.08764085919,0.3176514506,0.8837252259,-0.2790962756,1.576300502,0.6560991406,1905,5,22,8,34,32,897918,0,369,121.7603073,-12.54768276,70.72021484,0.2007687539,0.8769030571,0.3093092442,1.500064015,-0.3349982798,0.518573761,1905,5,25,20,11,51,741693
0,370,272.9020691,-5.298100948,20.14855385,0.07831446826,0.3171750903,0.8817155361,-0.008354506455,1.645802259,1.240581989,1905,5,22,8,34,32,939977,0,370,121.7609711,-12.54563618,70.72024536,0.2014954835,0.8710676432,0.3143925667,1.925515413,-0.4045000374,0.1403789073,1905,5,25,20,11,51,782779
0,371,272.9052429,-5.281212807,20.13526726,0.0800101757,0.3164605498,0.8917639852,0.8425482512,2.132314682,0.002853517653,1905,5,22,8,34,32,979977,0,371,121.7624359,-12.54459572,70.72224426,0.203796804,0.8753548861,0.3078906238,0.9199030399,-0.1264929324,0.4154296815,1905,5,25,20,11,51,867708
0,372,272.9082031,-5.274393082,20.1109581,0.08461280912,0.3015741706,0.8859713674,0.4170968533,2.097563744,-0.4784853458,1905,5,22,8,34,33,23901,0,372,121.7637939,-12.54298306,70.73000336,0.2046446502,0.8719012737,0.3070631027,1.229322195,-0.2307455987,0.4154296815,1905,5,25,20,11,51,912690
0,373,272.9125061,-5.276213169,20.09003448,0.08739861846,0.3088387251,0.8885720968,0.5718064308,1.333044291,0.4841924012,1905,5,22,8,34,33,40045,0,373,121.7628784,-12.54053783,70.73239899,0.2011321187,0.8805949092,0.3087181449,0.9199030399,-0.6477562785,0.1403789073,1905,5,25,20,11,51,952729
0,374,272.914917,-5.274971962,20.09477425,0.08558178693,0.3287269175,0.889990747,0.9199030399,1.715304017,0.518573761,1905,5,22,8,34,33,80053,0,374,121.7629852,-12.53659725,70.73525238,0.1995575279,0.8782131076,0.3091910183,1.267999649,-0.5087527037,0.002853517653,1905,5,25,20,11,51,992734
0,375,272.9186707,-5.274611473,20.08659935,0.08824647218,0.3136023581,0.8830159307,2.776417971,2.340820074,0.2091416121,1905,5,22,8,34,33,123991,0,375,121.7626114,-12.5375452,70.7378006,0.2077938318,0.8771412373,0.3119100034,1.538741469,-0.09174205363,0.2091416121,1905,5,25,20,11,52,40013
0,376,272.91922,-5.255106926,20.07398796,0.07879895717,0.3081241548,0.8849074244,2.815095425,2.201816559,-1.338019013,1905,5,22,8,34,33,165096,0,376,121.7612991,-12.53472424,70.7432251,0.1949549019,0.8823812604,0.305762738,0.3784194589,0.1862650365,0.552955091,1905,5,25,20,11,52,121216
0,377,272.9200439,-5.243724823,20.04638481,0.07552866638,0.2955005169,0.8877446055,-0.7432250381,1.437296987,-1.234874964,1905,5,22,8,34,33,208092,0,377,121.7624969,-12.5325098,70.74588776,0.203796804,0.8777367473,0.3115553558,1.693451047,-0.439250946,0.07161621004,1905,5,25,20,11,52,165960
0,378,272.9230957,-5.250421047,20.0337677,0.0922434926,0.3107441664,0.8891631961,2.273612022,1.854307532,-0.06590917706,1905,5,22,8,34,33,248097,0,378,121.7646027,-12.52882099,70.74600983,0.1991941631,0.872377634,0.3096638918,0.726516068,-0.1959947199,0.2779043019,1905,5,25,20,11,52,245976
0,379,272.926178,-5.247757912,20.02186394,0.08279598504,0.3159841895,0.8898724914,1.616096258,1.993311167,-0.06590917706,1905,5,22,8,34,33,288099,0,379,121.7641525,-12.52724361,70.75042725,0.2018588483,0.875235796,0.3100185394,1.113290071,-0.1264929324,0.2091416121,1905,5,25,20,11,52,285981
0,380,272.9296875,-5.249491215,20.01068115,0.09030554444,0.3119350672,0.8878628016,2.312289476,2.375570774,0.002853517653,1905,5,22,8,34,33,328101,0,380,121.7631836,-12.52809334,70.75539398,0.2053713948,0.875235796,0.3049352169,1.538741469,-0.9257633686,0.4154296815,1905,5,25,20,11,52,325986
0,381,272.9342041,-5.266253948,20.00117683,0.09720949829,0.3128878176,0.8812426925,0.4557742476,1.263542533,1.034294009,1905,5,22,8,34,33,368105,0,381,121.7639999,-12.52426243,70.75629425,0.2008898705,0.8764266968,0.309545666,1.461386681,0.1862650365,0.1403789073,1905,5,25,20,11,52,408233
0,382,272.9378052,-5.26967144,19.98039818,0.08812534809,0.3024078012,0.8891631961,1.306676984,1.298293352,0.1059975624,1905,5,22,8,34,33,408114,0,382,121.7657089,-12.52109241,70.75727844,0.1984674335,0.872258544,0.3084817231,1.074612617,0.04726149142,0.3810483515,1905,5,25,20,11,52,448238
0,383,272.9391479,-5.28084898,19.9712677,0.09066890925,0.3151505291,0.8850256205,0.6491612792,1.124539018,-0.375341326,1905,5,22,8,34,33,448114,0,383,121.7653351,-12.51955318,70.75997162,0.2018588483,0.8819049001,0.3077724278,1.074612617,-0.1959947199,0.3122856617,1905,5,25,20,11,52,490998
0,384,272.9423218,-5.289223194,19.95612717,0.09139563888,0.3082432449,0.8869171143,1.229322195,1.298293352,0.1403789073,1905,5,22,8,34,33,488117,0,384,121.7674866,-12.51646519,70.76425934,0.203191191,0.8755930662,0.3096638918,1.848160625,-0.6130053401,0.07161621004,1905,5,25,20,11,52,533934
0,385,272.9663391,-5.303894997,19.93113327,0.08691412956,0.3009786904,0.8897542953,0.3397420645,0.2905176878,9.423342705,1905,5,22,8,34,33,528129,0,385,121.7687531,-12.51527023,70.76628113,0.2013743669,0.8748785257,0.3078906238,1.345354438,0.1515141577,0.518573761,1905,5,25,20,11,52,615019
0,386,272.9704895,-5.313132763,19.92106628,0.09054778516,0.3115777969,0.8866806626,1.886837959,1.784805775,0.4841924012,1905,5,22,8,34,33,568992,0,386,121.7683105,-12.5129509,70.76869202,0.2027067095,0.8785703778,0.3103731871,1.461386681,-0.1959947199,0.1747602522,1905,5,25,20,11,52,695029
0,387,272.9752808,-5.321810246,19.90462685,0.09272798151,0.3066950738,0.8849074244,0.6104838252,1.506798744,0.7936245203,1905,5,22,8,34,33,608998,0,387,121.7673035,-12.51048565,70.77425385,0.2013743669,0.8777367473,0.3087181449,1.461386681,0.255766809,0.518573761,1905,5,25,20,11,52,735220
0,388,272.9773865,-5.33140564,19.89829636,0.09188012779,0.3152696192,0.8875081539,1.151967406,1.089788079,0.07161621004,1905,5,22,8,34,33,649005,0,388,121.7671661,-12.50908566,70.77364349,0.2018588483,0.8716630936,0.3101367652,0.8812256455,-0.4045000374,0.03723486513,1905,5,25,20,11,52,775233
0,389,272.9804688,-5.341677189,19.89225006,0.09454481304,0.3138405383,0.8873899579,1.693451047,1.333044291,0.4154296815,1905,5,22,8,34,33,692989,0,389,121.7676163,-12.50668526,70.77502441,0.1991941631,0.8759503365,0.3099003136,1.151967406,-0.6477562785,0.518573761,1905,5,25,20,11,52,815242
0,390,272.983551,-5.350354671,19.88208008,0.09079003334,0.3130069077,0.8872717619,0.9972578883,0.7422792315,0.518573761,1905,5,22,8,34,33,735986,0,390,121.7678757,-12.50668144,70.77311707,0.2014954835,0.8772603273,0.3106096089,0.6104838252,0.1167632714,0.552955091,1905,5,25,20,11,52,902921
0,391,272.9880676,-5.354964256,19.86493301,0.09091114998,0.3086005449,0.8914093375,0.6104838252,1.298293352,0.7248618007,1905,5,22,8,34,33,775990,0,391,121.7733917,-12.50268459,70.7747345,0.1989519298,0.8819049001,0.3125011027,1.345354438,0.4642721117,1.103056669,1905,5,25,20,11,52,947020
0,392,272.9897461,-5.359216213,19.86969376,0.08982105553,0.3225341737,0.8843163252,0.9972578883,1.715304017,0.1403789073,1905,5,22,8,34,33,817072,0,392,121.7748184,-12.50118923,70.77775574,0.202585578,0.878808558,0.311318934,1.886837959,-0.4045000374,0.518573761,1905,5,25,20,11,52,987032
0,393,272.9857788,-5.352193832,19.90353012,0.08146364242,0.3732669652,0.8772233129,4.594255447,2.132314682,-1.613069892,1905,5,22,8,34,33,857073,0,393,121.7756805,-12.4995575,70.7802124,0.2039179206,0.8729730844,0.3088363707,1.422709227,-0.6130053401,-0.06590917706,1905,5,25,20,11,53,30645
0,394,272.9523621,-5.354901314,19.8709507,0.1071414948,0.1634285152,0.9131612182,-3.914771795,-4.331350327,-14.29978752,1905,5,22,8,34,33,899000,0,394,121.778511,-12.49740505,70.78052521,0.2035545558,0.8765457869,0.3112007082,0.9199030399,-0.05699117109,0.243522957,1905,5,25,20,11,53,40542
0,395,272.9318848,-5.34849596,19.86647415,0.06801910698,0.347186029,0.8812426925,-10.10315514,-4.26184845,-6.804653168,1905,5,22,8,34,33,939009,0,395,121.7791443,-12.49506664,70.78060913,0.2006476372,0.8757121563,0.3107278347,1.074612617,-0.09174205363,0.1403789073,1905,5,25,20,11,53,80556
0,396,272.9402161,-5.32794714,19.86449814,0.06620227545,0.3009786904,0.8892814517,8.191253662,3.00108695,1.653158188,1905,5,22,8,34,33,984001,0,396,121.7767868,-12.49210453,70.78201294,0.1956816316,0.8751167059,0.3103731871,1.577418804,-0.8910124898,0.243522957,1905,5,25,20,11,53,122297
0,397,272.9458313,-5.34254837,19.84468269,0.09660388529,0.2982396185,0.8839616776,0.4557742476,0.4990229905,1.378107429,1905,5,22,8,34,34,25075,0,397,121.7794266,-12.48886108,70.78343964,0.1995575279,0.8778558373,0.3094274402,0.9972578883,0.04726149142,0.518573761,1905,5,25,20,11,53,162304
0,398,272.9505615,-5.328314304,19.84260368,0.09248574078,0.3225341737,0.8841980696,0.8425482512,0.9507845044,1.928209066,1905,5,22,8,34,34,40008,0,398,121.7806244,-12.48606873,70.78736115,0.2019799799,0.8795230985,0.3099003136,1.925515413,-0.300247401,0.07161621004,1905,5,25,20,11,53,207264
0,399,272.9578857,-5.333821774,19.82587242,0.08679300547,0.3086005449,0.8852620721,-0.1630640924,0.5337738991,2.306403875,1905,5,22,8,34,34,80020,0,399,121.7799377,-12.48761749,70.7845993,0.203796804,0.8671376109,0.307654202,0.06900028884,-0.2654964924,0.3122856617,1905,5,25,20,11,53,251362
0,400,272.9620056,-5.331876755,19.83761787,0.08582402766,0.3259878159,0.8856167197,2.196257114,1.367795229,1.550014138,1905,5,22,8,34,34,120027,0,400,121.7826462,-12.48577976,70.78160858,0.1953182667,0.870233953,0.3074177802,-0.4724832773,-0.02224028297,1.446870089,1905,5,25,20,11,53,293561
0,401,272.9670715,-5.344987869,19.82387543,0.09454481304,0.3082432449,0.8844345212,0.2237098813,0.2210159302,1.550014138,1905,5,22,8,34,34,160033,0,401,121.7868195,-12.48680496,70.77275085,0.1996786594,0.8678521514,0.314037919,-0.8205798268,0.5685247779,1.721920967,1905,5,25,20,11,53,333568
0,402,272.973114,-5.335175514,19.82605743,0.07964681089,0.3201523721,0.8837252259,0.2623872757,-0.3349982798,2.890886784,1905,5,22,8,34,34,200037,0,402,121.7911682,-12.48921871,70.76499176,0.2045235336,0.8828576207,0.3123828769,-2.406352997,0.01251060329,2.203259706,1905,5,25,20,11,53,414256
0,403,272.9791565,-5.329530716,19.81108093,0.0806157887,0.3038368821,0.890227139,3.240546703,1.367795229,1.171819329,1905,5,22,8,34,34,240049,0,403,121.7891693,-12.48738384,70.78216553,0.1999209076,0.8971485496,0.286493361,1.461386681,-1.655532002,0.07161621004,1905,5,25,20,11,53,455335
0,404,272.9816284,-5.336849689,19.81239319,0.09200125188,0.3186041713,0.8872717619,1.461386681,1.228791595,0.518573761,1905,5,22,8,34,34,283991,0,404,121.7870178,-12.48229885,70.7930603,0.1966506094,0.8926231265,0.3011522591,2.350966692,-1.030016065,-0.1346718818,1905,5,25,20,11,53,495347
0,405,272.9849548,-5.339895248,19.80675125,0.088004224,0.3133641779,0.8886903524,2.118902445,1.055037141,0.587336421,1905,5,22,8,34,34,323996,0,405,121.7783051,-12.46403122,70.8190918,0.1966506094,0.8926231265,0.3112007082,3.163192034,-1.72503376,-1.166112304,1905,5,25,20,11,53,538585
0,406,272.9891663,-5.341034889,19.78831863,0.08691412956,0.3038368821,0.8847891688,0.9585804343,0.6380265355,0.7592431903,1905,5,22,8,34,34,368926,0,406,121.7717209,-12.45416069,70.82785034,0.196771726,0.8811903596,0.3169933259,5.058384418,-1.586030245,-2.369459391,1905,5,25,20,11,53,583269
0,407,272.9927673,-5.338263512,19.78676033,0.08134251833,0.3163414598,0.8845527768,1.693451047,0.9855354428,0.8967685699,1905,5,22,8,34,34,409996,0,407,121.7693787,-12.44155788,70.83085632,0.1919268519,0.8609448671,0.3179390728,5.406481266,-1.412275791,-2.988323689,1905,5,25,20,11,53,623370
0,408,272.9978027,-5.341355801,19.77544785,0.088004224,0.3086005449,0.8844345212,1.654773593,0.394770354,1.446870089,1905,5,22,8,34,34,450160,0,408,121.765831,-12.43447781,70.83566284,0.1959238797,0.8604685068,0.3112007082,5.174417019,-0.8910124898,-2.988323689,1905,5,25,20,11,53,703381
0,409,273.0014343,-5.341958046,19.78298569,0.08509729803,0.3219387233,0.8845527768,1.461386681,0.5337738991,1.550014138,1905,5,22,8,34,34,530178,0,409,121.7639923,-12.43865871,70.83460999,0.2117908448,0.8595157862,0.3145107925,3.047159672,-0.3349982798,-1.097349644,1905,5,25,20,11,53,745252
0,410,273.004364,-5.315437794,19.78820801,0.07564979047,0.3212241828,0.8889268041,4.63293314,0.9855354428,-0.3409599662,1905,5,22,8,34,34,570943,0,410,121.7631378,-12.44147491,70.83071136,0.2080360651,0.8621357679,0.3149836361,1.925515413,-0.1264929324,-0.6160107255,1905,5,25,20,11,53,790263
0,411,273.0057068,-5.299264431,19.79847908,0.0757709071,0.3147932589,0.890227139,8.191253662,1.784805775,-0.5128666759,1905,5,22,8,34,34,611147,0,411,121.7629547,-12.44406223,70.82236481,0.2060981244,0.8663039804,0.317820847,0.6104838252,0.1862650365,-0.06590917706,1905,5,25,20,11,53,830275
0,412,273.0130005,-5.313724995,19.77828217,0.1015698835,0.2885932326,0.8920004368,1.461386681,0.394770354,2.100115776,1905,5,22,8,34,34,653988,0,412,121.7661743,-12.44595146,70.81118774,0.2052502632,0.86582762,0.317820847,-0.3951284885,0.8117809892,0.3810483515,1905,5,25,20,11,53,870283
